"trial_id","rt","stimulus","response","trial_type","trial_index","plugin_version","time_elapsed","language","participant_number","success","raw_payload","placements","dissimilarity_vector","n_words","trial_category","distance_matrix","value"
"consent_form","3484","
    <div style=""max-width:800px; margin:0 auto; text-align:left; font-size: 16px; padding: 10px 0;"">
      <h1>Informed Consent Form</h1>
      <p>You are being invited to participate in a research study titled <strong>""Reproducibility of Psychological Science and Instruction.""</strong> This study is being done by Dr. Bria Long from UC San Diego and associated graduate students in the Experimental Methods course. You were selected to participate in this study because you are an adult in the U.S. and have been a represented population in previous psychology studies.</p>
      
      <p>The purpose of this study is to better understand how well previously published studies in the psychological field replicate online and with different populations. Your participation in this research should last approximately <strong>5-30 minutes</strong>. If you agree to take part in this study, you may be asked to view a set of stimuli, including pictures, sounds, written text, or videos and then giving some responses via key-presses, verbally, or with paper-and-pencil. We may also observe your choices or preferences among an array of stimuli. These stimuli will be taken directly from or closely adapted from studies that already exist in the published psychological literature. Stimuli will include, e.g., pictures of objects and human faces, audio and video clips, short text passages, etc. None of the stimuli will be disturbing, threatening, or offensive. The online and in-person experiments described in this protocol will take no more than 30 minutes. An example game you might play would be to click on an image on the screen that matches a word you hear being said out loud. Your total expected time commitment for this study is between 5-30 minutes, and is specified in the study description.</p>
      
      <p>Your participation in this study is completely voluntary and you can withdraw at any time. Choosing not to participate or withdrawing will result in no penalty or loss of benefits to which you are entitled. You are free to skip any question that you choose.</p>
      
      <p>We will not be asking for any personally identifying information, and we will handle responses as confidentially as possible. Your SONA or Prolific IDs will never be tied to your responses on this survey. However, we cannot guarantee the confidentiality of information transmitted over the Internet. To minimize this risk, data containing anything that might be personally identifying (e.g. Prolific IDs or IP addresses) will be encrypted on transfer and storage and will only be accessible to qualified lab personnel. We will be keeping data collected as part of this experiment indefinitely. This anonymized data (containing neither Prolific IDs nor IP addresses) may be shared with the scientific community or with other participants to be used as stimuli in future studies.</p>
      
      <p>If you have questions about this project or if you have a research-related problem, you may contact the researcher(s), <strong>Dr. Bria Long, <a href=""mailto:brlong@ucsd.edu"">brlong@ucsd.edu</a></strong>. If you have any questions concerning your rights as a research subject, you may contact the UC San Diego Office of IRB Administration at <a href=""mailto:irb@ucsd.edu"">irb@ucsd.edu</a> or 858-246-4777.</p>
      
      <h3 style=""margin-top: 25px;"">Consent Statement</h3>
      <p style=""font-weight: bold;"">By participating in this research you are indicating that you are at least 18 years old, have read this consent form, and agree to participate in this research study. Please keep this consent form for your records.</p>
    </div>
  ","0","html-button-response","0","2.1.0","3486","en","1qd4byv8kq_4x4rhh","","","","","","","",""
"","1575","
    <div style=""display:flex; align-items:center; justify-content:center; height:100vh; font-family:sans-serif;"">
      <div style=""max-width:900px; margin:0 auto; text-align:center;"">
        <h1 style= ""font-size: 24px;"">Welcome! Thank you for participating in the study.</h1>
        <p style=""font-size:18px; line-height:1.6;"">
          In this task, you will be presented with <strong>90 words</strong> arranged <strong>outside a circle</strong>.<br>
          Your job is to <strong>drag these words into the circle</strong> and <strong>rearrange them</strong> based on their <strong>meaning similarity</strong>.<br><br>
          Words that are <strong>similar in meaning</strong> should be placed <strong>closer together</strong>.<br>
          Words that are <strong>different in meaning</strong> should be placed <strong>farther apart</strong>.<br><br>
          You can place the words <strong>anywhere inside the circle</strong>. There is no single correct answer — 
          we are interested in <strong>your personal judgment</strong> of how these words relate to each other.<br><br>
          <strong>You must move all words into the circle before you can finish.</strong><br>
          After the initial arrangement, you will arrange words from specific categories.
        </p>
        <p style=""font-size:16px; margin-top:30px;""><em>Press any key to continue.</em></p>
      </div>
    </div>
  ","Enter","html-keyboard-response","1","2.1.0","5061","en","1qd4byv8kq_4x4rhh","","","","","","","",""
"","1779","<p style='font-size:20px;'>Which is your first language or primary language of use?</p>","1","html-button-response","2","2.1.0","6838","en","1qd4byv8kq_4x4rhh","","","","","","","",""
"","1091","","","fullscreen","3","2.1.0","8930","en","1qd4byv8kq_4x4rhh","true","{""placements"":[{""word"":""proud"",""x"":423.1,""y"":281.8,""cx"":446,""cy"":299.2,""angle_rad"":-0.487,""angle_deg"":332.1},{""word"":""refrigerator"",""x"":531.8,""y"":385.3,""cx"":571,""cy"":402.7,""angle_rad"":0.234,""angle_deg"":13.4},{""word"":""rabbit"",""x"":597.5,""y"":458.3,""cx"":620,""cy"":475.7,""angle_rad"":0.436,""angle_deg"":25},{""word"":""agreement"",""x"":578.5,""y"":409.3,""cx"":617,""cy"":426.7,""angle_rad"":0.28,""angle_deg"":16},{""word"":""lips"",""x"":541.5,""y"":509.3,""cx"":557,""cy"":526.7,""angle_rad"":0.707,""angle_deg"":40.5},{""word"":""scissors"",""x"":516.7,""y"":479.3,""cx"":547,""cy"":496.7,""angle_rad"":0.64,""angle_deg"":36.7},{""word"":""giraffe"",""x"":588.7,""y"":504.3,""cx"":613,""cy"":521.7,""angle_rad"":0.578,""angle_deg"":33.1},{""word"":""system"",""x"":535.8,""y"":553.3,""cx"":563,""cy"":570.7,""angle_rad"":0.803,""angle_deg"":46},{""word"":""fault"",""x"":490.8,""y"":580.3,""cx"":509,""cy"":597.7,""angle_rad"":1,""angle_deg"":57.3},{""word"":""friendship"",""x"":412.7,""y"":517.3,""cx"":448,""cy"":534.7,""angle_rad"":1.083,""angle_deg"":62},{""word"":""method"",""x"":432.7,""y"":542.3,""cx"":461,""cy"":559.7,""angle_rad"":1.084,""angle_deg"":62.1},{""word"":""ant"",""x"":497.3,""y"":519.3,""cx"":512,""cy"":536.7,""angle_rad"":0.856,""angle_deg"":49.1},{""word"":""depressed"",""x"":407.3,""y"":468.3,""cx"":445,""cy"":485.7,""angle_rad"":0.96,""angle_deg"":55},{""word"":""sofa"",""x"":427.8,""y"":573.3,""cx"":446,""cy"":590.7,""angle_rad"":1.191,""angle_deg"":68.3},{""word"":""violence"",""x"":335.3,""y"":555.3,""cx"":366,""cy"":572.7,""angle_rad"":1.499,""angle_deg"":85.9},{""word"":""chopsticks"",""x"":414.3,""y"":420.3,""cx"":452,""cy"":437.7,""angle_rad"":0.71,""angle_deg"":40.7},{""word"":""concept"",""x"":537.5,""y"":255.3,""cx"":567,""cy"":272.7,""angle_rad"":-0.342,""angle_deg"":340.4},{""word"":""sparrow"",""x"":499.1,""y"":435.3,""cx"":529,""cy"":452.7,""angle_rad"":0.521,""angle_deg"":29.8},{""word"":""chair"",""x"":559.8,""y"":317.3,""cx"":580,""cy"":334.7,""angle_rad"":-0.066,""angle_deg"":356.2},{""word"":""business"",""x"":598.4,""y"":232.3,""cx"":631,""cy"":249.7,""angle_rad"":-0.343,""angle_deg"":340.4},{""word"":""magic power"",""x"":451.3,""y"":324.3,""cx"":496,""cy"":341.7,""angle_rad"":-0.057,""angle_deg"":356.7},{""word"":""result"",""x"":374.9,""y"":493.3,""cx"":397,""cy"":510.7,""angle_rad"":1.286,""angle_deg"":73.7},{""word"":""hostility"",""x"":354.7,""y"":336.8,""cx"":383,""cy"":354.2,""angle_rad"":0.127,""angle_deg"":7.3},{""word"":""dispute"",""x"":457.4,""y"":275.3,""cx"":485,""cy"":292.7,""angle_rad"":-0.401,""angle_deg"":337},{""word"":""relationship"",""x"":395.2,""y"":615.8,""cx"":436,""cy"":633.2,""angle_rad"":1.276,""angle_deg"":73.1},{""word"":""pencil"",""x"":358.7,""y"":448.8,""cx"":382,""cy"":466.2,""angle_rad"":1.302,""angle_deg"":74.6},{""word"":""anger"",""x"":280.1,""y"":567.8,""cx"":303,""cy"":585.2,""angle_rad"":1.768,""angle_deg"":101.3},{""word"":""team"",""x"":336.4,""y"":660.8,""cx"":357,""cy"":678.2,""angle_rad"":1.549,""angle_deg"":88.8},{""word"":""washing machine"",""x"":192.9,""y"":543.8,""cx"":252,""cy"":561.2,""angle_rad"":2.005,""angle_deg"":114.9},{""word"":""thigh"",""x"":218.8,""y"":515.8,""cx"":239,""cy"":533.2,""angle_rad"":2.116,""angle_deg"":121.2},{""word"":""charity"",""x"":129.4,""y"":492.8,""cx"":155,""cy"":510.2,""angle_rad"":2.454,""angle_deg"":140.6},{""word"":""finger"",""x"":190.5,""y"":444.8,""cx"":213,""cy"":462.2,""angle_rad"":2.455,""angle_deg"":140.7},{""word"":""characteristic"",""x"":385.8,""y"":385.8,""cx"":432,""cy"":403.2,""angle_rad"":0.576,""angle_deg"":33},{""word"":""cat"",""x"":130.7,""y"":443.8,""cx"":145,""cy"":461.2,""angle_rad"":2.645,""angle_deg"":151.5},{""word"":""eye"",""x"":170.7,""y"":617.8,""cx"":187,""cy"":635.2,""angle_rad"":2.09,""angle_deg"":119.7},{""word"":""bed"",""x"":331.3,""y"":372.8,""cx"":348,""cy"":390.2,""angle_rad"":1.62,""angle_deg"":92.8},{""word"":""computer mouse"",""x"":264.9,""y"":615.8,""cx"":322,""cy"":633.2,""angle_rad"":1.669,""angle_deg"":95.6},{""word"":""microwave"",""x"":171.6,""y"":360.8,""cx"":210,""cy"":378.2,""angle_rad"":2.943,""angle_deg"":168.6},{""word"":""reason"",""x"":304.6,""y"":506.8,""cx"":331,""cy"":524.2,""angle_rad"":1.679,""angle_deg"":96.2},{""word"":""hammer"",""x"":251.3,""y"":400.8,""cx"":282,""cy"":418.2,""angle_rad"":2.355,""angle_deg"":134.9},{""word"":""spoon"",""x"":112.9,""y"":364.8,""cx"":137,""cy"":382.2,""angle_rad"":2.992,""angle_deg"":171.4},{""word"":""fate"",""x"":195.3,""y"":405.8,""cx"":212,""cy"":423.2,""angle_rad"":2.654,""angle_deg"":152.1},{""word"":""arm"",""x"":270.9,""y"":448.8,""cx"":288,""cy"":466.2,""angle_rad"":2.061,""angle_deg"":118.1},{""word"":""rat"",""x"":281.8,""y"":364.8,""cx"":295,""cy"":382.2,""angle_rad"":2.612,""angle_deg"":149.6},{""word"":""excited"",""x"":131.8,""y"":399.8,""cx"":159,""cy"":417.2,""angle_rad"":2.803,""angle_deg"":160.6},{""word"":""ear"",""x"":355.9,""y"":283.8,""cx"":371,""cy"":301.2,""angle_rad"":-1.164,""angle_deg"":293.3},{""word"":""society"",""x"":16.2,""y"":362.8,""cx"":43,""cy"":380.2,""angle_rad"":3.044,""angle_deg"":174.4},{""word"":""toothbrush"",""x"":26.9,""y"":400.8,""cx"":65,""cy"":418.2,""angle_rad"":2.907,""angle_deg"":166.5},{""word"":""process"",""x"":167.5,""y"":213.8,""cx"":197,""cy"":231.2,""angle_rad"":-2.481,""angle_deg"":217.8},{""word"":""splendor"",""x"":266.2,""y"":308.8,""cx"":298,""cy"":326.2,""angle_rad"":-2.712,""angle_deg"":204.6},{""word"":""air conditioner"",""x"":123,""y"":303.8,""cx"":172,""cy"":321.2,""angle_rad"":-2.981,""angle_deg"":189.2},{""word"":""tortoise"",""x"":88.1,""y"":244.8,""cx"":116,""cy"":262.2,""angle_rad"":-2.783,""angle_deg"":200.6},{""word"":""status"",""x"":64.3,""y"":304.8,""cx"":88,""cy"":322.2,""angle_rad"":-3.036,""angle_deg"":186.1},{""word"":""trauma"",""x"":308.2,""y"":246.8,""cx"":335,""cy"":264.2,""angle_rad"":-1.744,""angle_deg"":260.1},{""word"":""death"",""x"":242.5,""y"":257.8,""cx"":265,""cy"":275.2,""angle_rad"":-2.42,""angle_deg"":221.3},{""word"":""happy"",""x"":178.9,""y"":176.8,""cx"":203,""cy"":194.2,""angle_rad"":-2.327,""angle_deg"":226.7},{""word"":""identity"",""x"":161.8,""y"":253.8,""cx"":189,""cy"":271.2,""angle_rad"":-2.686,""angle_deg"":206.1},{""word"":""marriage"",""x"":269.4,""y"":124.8,""cx"":302,""cy"":142.2,""angle_rad"":-1.798,""angle_deg"":257},{""word"":""error"",""x"":54.2,""y"":235.8,""cx"":74,""cy"":253.2,""angle_rad"":-2.804,""angle_deg"":199.3},{""word"":""ankle"",""x"":126.3,""y"":190.8,""cx"":148,""cy"":208.2,""angle_rad"":-2.53,""angle_deg"":215.1},{""word"":""tiger"",""x"":241.4,""y"":181.8,""cx"":260,""cy"":199.2,""angle_rad"":-2.109,""angle_deg"":239.2},{""word"":""apathy"",""x"":122,""y"":134.8,""cx"":148,""cy"":152.2,""angle_rad"":-2.367,""angle_deg"":224.4},{""word"":""disease"",""x"":231.9,""y"":22.8,""cx"":261,""cy"":40.2,""angle_rad"":-1.851,""angle_deg"":254},{""word"":""broom"",""x"":281.2,""y"":176.8,""cx"":306,""cy"":194.2,""angle_rad"":-1.846,""angle_deg"":254.2},{""word"":""sad"",""x"":84.7,""y"":177.8,""cx"":101,""cy"":195.2,""angle_rad"":-2.585,""angle_deg"":211.9},{""word"":""key"",""x"":348.1,""y"":145.8,""cx"":364,""cy"":163.2,""angle_rad"":-1.496,""angle_deg"":274.3},{""word"":""heaven"",""x"":408,""y"":59.8,""cx"":436,""cy"":77.2,""angle_rad"":-1.265,""angle_deg"":287.5},{""word"":""obligation"",""x"":295,""y"":66.8,""cx"":330,""cy"":84.2,""angle_rad"":-1.646,""angle_deg"":265.7},{""word"":""data"",""x"":135.4,""y"":90.8,""cx"":154,""cy"":108.2,""angle_rad"":-2.252,""angle_deg"":231},{""word"":""loving heart"",""x"":168.8,""y"":134.8,""cx"":210,""cy"":152.2,""angle_rad"":-2.187,""angle_deg"":234.7},{""word"":""content"",""x"":216,""y"":69.8,""cx"":244,""cy"":87.2,""angle_rad"":-1.954,""angle_deg"":248},{""word"":""phenomenon"",""x"":457.1,""y"":129.8,""cx"":503,""cy"":147.2,""angle_rad"":-0.924,""angle_deg"":307},{""word"":""cabinet"",""x"":501.4,""y"":175.8,""cx"":529,""cy"":193.2,""angle_rad"":-0.719,""angle_deg"":318.8},{""word"":""miracle"",""x"":508.4,""y"":207.8,""cx"":536,""cy"":225.2,""angle_rad"":-0.591,""angle_deg"":326.1},{""word"":""fear"",""x"":475.9,""y"":72.8,""cx"":493,""cy"":90.2,""angle_rad"":-1.068,""angle_deg"":298.8},{""word"":""knee"",""x"":345.8,""y"":199.8,""cx"":366,""cy"":217.2,""angle_rad"":-1.451,""angle_deg"":276.9},{""word"":""comfortable"",""x"":305.4,""y"":34.8,""cx"":347,""cy"":52.2,""angle_rad"":-1.581,""angle_deg"":269.4},{""word"":""debt"",""x"":585.4,""y"":131.8,""cx"":604,""cy"":149.2,""angle_rad"":-0.669,""angle_deg"":321.7},{""word"":""elephant"",""x"":392.1,""y"":172.8,""cx"":424,""cy"":190.2,""angle_rad"":-1.137,""angle_deg"":294.9},{""word"":""effect"",""x"":411,""y"":111.8,""cx"":433,""cy"":129.2,""angle_rad"":-1.211,""angle_deg"":290.6},{""word"":""discipline"",""x"":334.2,""y"":117.8,""cx"":368,""cy"":135.2,""angle_rad"":-1.487,""angle_deg"":274.8},{""word"":""television"",""x"":587.8,""y"":191.8,""cx"":622,""cy"":209.2,""angle_rad"":-0.478,""angle_deg"":332.6},{""word"":""shoulder"",""x"":415.2,""y"":231.8,""cx"":447,""cy"":249.2,""angle_rad"":-0.805,""angle_deg"":313.9},{""word"":""nose"",""x"":625.8,""y"":273.8,""cx"":646,""cy"":291.2,""angle_rad"":-0.196,""angle_deg"":348.8},{""word"":""ax"",""x"":403.6,""y"":197.8,""cx"":416,""cy"":215.2,""angle_rad"":-1.115,""angle_deg"":296.1},{""word"":""scenery"",""x"":528.5,""y"":289.8,""cx"":558,""cy"":307.2,""angle_rad"":-0.203,""angle_deg"":348.4},{""word"":""panda"",""x"":572.5,""y"":357.8,""cx"":597,""cy"":375.2,""angle_rad"":0.102,""angle_deg"":5.8},{""word"":""fraud"",""x"":618.1,""y"":322.8,""cx"":639,""cy"":340.2,""angle_rad"":-0.034,""angle_deg"":358.1},{""word"":""table"",""x"":494.8,""y"":377.3,""cx"":515,""cy"":394.7,""angle_rad"":0.265,""angle_deg"":15.2}],""n_words"":89,""words"":[""proud"",""refrigerator"",""rabbit"",""agreement"",""lips"",""scissors"",""giraffe"",""system"",""fault"",""friendship"",""method"",""ant"",""depressed"",""sofa"",""violence"",""chopsticks"",""concept"",""sparrow"",""chair"",""business"",""magic power"",""result"",""hostility"",""dispute"",""relationship"",""pencil"",""anger"",""team"",""washing machine"",""thigh"",""charity"",""finger"",""characteristic"",""cat"",""eye"",""bed"",""computer mouse"",""microwave"",""reason"",""hammer"",""spoon"",""fate"",""arm"",""rat"",""excited"",""ear"",""society"",""toothbrush"",""process"",""splendor"",""air conditioner"",""tortoise"",""status"",""trauma"",""death"",""happy"",""identity"",""marriage"",""error"",""ankle"",""tiger"",""apathy"",""disease"",""broom"",""sad"",""key"",""heaven"",""obligation"",""data"",""loving heart"",""content"",""phenomenon"",""cabinet"",""miracle"",""fear"",""knee"",""comfortable"",""debt"",""elephant"",""effect"",""discipline"",""television"",""shoulder"",""nose"",""ax"",""scenery"",""panda"",""fraud"",""table""],""distance_matrix"":[[0,0.21979547097180271,0.35803277837460773,0.30221677151129944,0.3665758863524459,0.31599245286736233,0.4070732566740537,0.43524592907739323,0.4504960144151649,0.33809728927973326,0.3791728147930098,0.3558560800197839,0.25891943817226926,0.4285618100742083,0.4179953811835216,0.1815722099099011,0.1577214509003213,0.23953154135856558,0.18156055495745088,0.26700617628512113,0.06361462858417741,0.30835812872473206,0.09271003084855924,0.0214710473513193,0.4974701474203639,0.24654464189342856,0.47421732605562056,0.5865911806305137,0.4843127818543038,0.4623586473825595,0.5383422877082622,0.4170184205378083,0.1271369031049499,0.5098726334626548,0.6430226486002673,0.17366329552782148,0.5332179512963401,0.3596875956724508,0.36585000831028924,0.2849684292813676,0.4745330317587172,0.38546261294106476,0.32903219500649433,0.2359851153223529,0.4589546377223882,0.07880954158818002,0.6217322204546084,0.6024926587259923,0.3746273907889154,0.20065791181189915,0.40171205699902424,0.494106452531122,0.5371972028795188,0.1456351918488196,0.25258845940109487,0.3852856485723219,0.3752778683036399,0.3017913807777166,0.5632019910490172,0.4610122506891697,0.29878636402410375,0.4944566557935993,0.4718395483243335,0.24033475337775406,0.5397766418309247,0.21417371336430613,0.3166355573526297,0.35229665055855547,0.5213339363638164,0.40681111090705724,0.43070678151515973,0.21987386023121258,0.17510821359171908,0.14584330599105708,0.3037010504327771,0.14268292463101317,0.3875258629857468,0.3095867057478182,0.13725098846611913,0.2330582577174041,0.2510046661736719,0.2769727919428973,0.03839054732900544,0.28098523157156313,0.10170336511895546,0.13900776767601,0.23071712735907002,0.2763755776820665,0.14794793228292843],[0.21979547097180271,0,0.09964176357037681,0.041419125654165154,0.15920779314546143,0.11433647074580273,0.16148021029042522,0.2293325480055576,0.2881899208856341,0.24909902431848338,0.2673171211921741,0.19414851456285412,0.2013656899727348,0.32235190664550945,0.3878748429148731,0.1580000638972523,0.16772842644092126,0.06309322691721973,0.0684147882249002,0.22311828062671876,0.11378592619314368,0.2884701118889443,0.2712835168627484,0.18318494325219115,0.3891779802682205,0.27972860942938466,0.4814559601804822,0.5212210559310975,0.533107401768017,0.5339481786787472,0.6517930836409251,0.5439390205701674,0.1821716222817539,0.6523306026182347,0.6828721685595972,0.318453120579585,0.5058075469099871,0.5421934599867623,0.3922126989408451,0.4251936912084526,0.6595784334620386,0.5385653050565555,0.42619747727853663,0.40474708911797663,0.6236637247909081,0.31995824136611273,0.8114450261499933,0.7755092650973818,0.6223573721158385,0.41566199199567583,0.6155586316035476,0.7269764211173231,0.7487293828616344,0.3997039435112397,0.49318912567814094,0.640961561616093,0.610326635111962,0.5626009302378916,0.7961269436316429,0.7098103679095364,0.5580795029222246,0.7518742364460448,0.7282324560987689,0.5023827300370455,0.787674358284307,0.4690483132078457,0.5269328044568095,0.6028998393119163,0.7824106049454763,0.6675192687703347,0.6917385788901789,0.3847673014271385,0.30281087079886243,0.24989603999140156,0.4779812404577718,0.40427689559040564,0.6296565550934502,0.3706216532538069,0.37506610531535506,0.4525439617397568,0.5001452466924488,0.2809014741457815,0.2764093541995638,0.17470129940362,0.3506406025719409,0.11331098494890175,0.01873589412886383,0.10681367323592025,0.0489870738373964],[0.35803277837460773,0.09964176357037681,0,0.0369069494788753,0.08855029110821953,0.08031835373064924,0.03276726238858235,0.13658866259081892,0.2240799863115017,0.25138253422279283,0.24813028574344273,0.15799355105854315,0.24079600083896896,0.29457150478994576,0.3968807284546886,0.2358819522692451,0.2965680649103068,0.10924082915889048,0.1943911611145676,0.32316684179546934,0.25256633613911594,0.32229822865006,0.3878938011064671,0.32500804678057726,0.3489133465221418,0.342428988365111,0.4994567844119761,0.4938783327077728,0.5679982584542893,0.5801362634034286,0.710947767152707,0.6155348267051273,0.28314233158924507,0.7253971132780386,0.7031351207613393,0.4182561207668654,0.5021742552658478,0.6384932484527497,0.4310521902858633,0.5115368518308935,0.7524524537213335,0.6222238462958236,0.4942165236670198,0.5039855603771698,0.7083931495244377,0.44885150967423476,0.9025220094857509,0.8590938854053753,0.7469786654711085,0.5311787225989845,0.7232505046575135,0.8419434687115921,0.852197598858497,0.5310034803119356,0.6163159713023418,0.7704750568168474,0.7283594710774066,0.7021137707386212,0.9101887819815256,0.8341488437209619,0.6909968350568984,0.8821170473601027,0.8694729253268688,0.6389378216097734,0.9107627075353525,0.6102786428035094,0.6667595553211487,0.7447648964250186,0.9164572075689984,0.80139175486221,0.8311179095731807,0.5210010188280915,0.43711679102778855,0.38446776288827883,0.6133649637197175,0.5431237357489762,0.7716784101822556,0.4857437384845067,0.5171072043345377,0.5937493567847335,0.6420074223687567,0.3881818628509567,0.41807758676895185,0.25862908595884354,0.49217440263901496,0.24767732559701608,0.12416433277093007,0.17865705906897267,0.17184953704056258],[0.30221677151129944,0.041419125654165154,0.0369069494788753,0,0.14600963180030685,0.11753469350753241,0.1112161194273219,0.20606945956696718,0.28436186249085865,0.2816343728073546,0.2888052400807037,0.20328563122889814,0.2513825342227928,0.3403980013859223,0.4267423845605704,0.2247696847540037,0.21919121162781038,0.10584621111765774,0.11780376140678847,0.24445928327449418,0.1965038065578384,0.33806898906980987,0.35339051272365296,0.2614932846206963,0.40125115019683794,0.3426019206502455,0.5258841680225287,0.5420393866874189,0.586078950644304,0.5920955786111641,0.716129275140434,0.6128412948299363,0.2588934478878998,0.7222270048361025,0.7296977834654813,0.3961916146049542,0.5393869777440958,0.619825632399738,0.44578922564516843,0.49901821625136966,0.7364436710343742,0.6119662523545404,0.49296731935339055,0.4827847402205993,0.6977321812538583,0.4037828053818,0.8880303775293156,0.8495529331711132,0.7060896778327247,0.49796613273379736,0.6964984899028575,0.8095642864686449,0.8288033324212647,0.4834453890397157,0.5767494655135074,0.7247457649706308,0.6933280461813981,0.6433810247431853,0.8786021269692141,0.7935453400075787,0.6415514863126285,0.8355934942512292,0.8065824119230005,0.5849606627997909,0.8713417737374598,0.5477929268216877,0.5935031036223845,0.6795587391243058,0.8655569544557848,0.7507560321118117,0.7724924721072468,0.44529169516898554,0.3607549308250647,0.3084697416784902,0.5370063231140256,0.4858252844568306,0.7035219222141468,0.40643396269686294,0.4507872086528851,0.5227612264020808,0.5769960576936978,0.3090941192808369,0.35468766608231117,0.18147312347434824,0.429007782363849,0.17291447099262008,0.04685215793259022,0.10179616828583082,0.13030969576014603],[0.3665758863524459,0.15920779314546143,0.08855029110821953,0.14600963180030685,0,0.008682626703290413,0.04842841705207638,0.029338211547338452,0.09605907866636093,0.13417337449475225,0.12160394682490748,0.0320695487812929,0.1502904910958527,0.16460582439806676,0.27500923424927337,0.17998006199263605,0.3682916263601805,0.085423339259352,0.27001920579516026,0.4208293833790059,0.27232096166094427,0.21738884102912806,0.3534564604749845,0.3531521848710815,0.21802735424599903,0.25675456090059706,0.37871745827919556,0.3629697211851139,0.45351607698788454,0.4714847265887015,0.6076416407777178,0.5230706036346641,0.24149681113468321,0.6316113424619407,0.5805659134080715,0.3609070611181495,0.37444660942897545,0.567414232039041,0.3227569208372966,0.43523499877269656,0.6752158603163672,0.5395439960976448,0.40306554767343555,0.4410123152471382,0.6245253769385304,0.42987359163074995,0.8211243863247525,0.7716062591455288,0.7100896753884323,0.4867880578105928,0.6626933089158755,0.7884366172395566,0.7842473366928924,0.5130427805025317,0.5802389871968866,0.7422738022579936,0.6814166331788325,0.7030230683828445,0.8543906779543968,0.7951363993716982,0.6719071152406918,0.8535752756060792,0.877676260081826,0.630687016746772,0.868451807054419,0.6225399448995674,0.7096923683766927,0.7611147673330638,0.8962884499401753,0.7824738994804181,0.8293544805471283,0.5769180861664399,0.49831625008031266,0.445898828154965,0.6703760895472444,0.5451998101964716,0.7959572636441146,0.5722195699765577,0.5421934599867625,0.6303475851115119,0.6599817884520942,0.4812092427945182,0.439882415529403,0.3643486434439643,0.5100339059613233,0.31223632233908066,0.21075414603112505,0.28675465949509793,0.18139586391994236],[0.31599245286736233,0.11433647074580273,0.08031835373064924,0.11753469350753241,0.008682626703290413,0,0.07161900632499069,0.07991355547203166,0.13194182156328316,0.1289212105426855,0.12983295602926817,0.043464971154976724,0.12334545384636071,0.1805135052133002,0.27476242042316085,0.1382724343478242,0.32094292537666036,0.034398935368285706,0.22470617006122515,0.3791101163241442,0.22122890404643025,0.20099597175438622,0.3086147854625733,0.30207566444798784,0.2418459944009813,0.22869418170592684,0.3769471144683381,0.382125338753616,0.44547632212332705,0.45870270250813505,0.591313413678892,0.5000995367807295,0.19705630952329117,0.6096223938928601,0.5807963351995709,0.3222597545596518,0.38278583357087365,0.534756071827557,0.30939476254250964,0.40413661786319727,0.6453670214300803,0.5117182504490226,0.3789436492145394,0.40479962661385566,0.5974990946953338,0.38259854166710155,0.7933657658667194,0.7466098595939868,0.6673703333818967,0.4451712486211846,0.6265400374306295,0.7503478239007837,0.7509732185785946,0.4659536427739781,0.5369567629231107,0.6977110193517835,0.6411869003871873,0.6538263243429216,0.8171293692605786,0.7531122900746461,0.6254660475461236,0.8092884836495421,0.8279444640460335,0.5824800176701233,0.8273894212837162,0.5722110755909335,0.6586947036329175,0.7106531792082226,0.8504377952407336,0.7362241080941749,0.7806363817540719,0.5267287357303709,0.4488116550597612,0.3966080371106453,0.62013499520538,0.4955938485700637,0.7451097060533648,0.5265429466392176,0.49118465741161654,0.5792655751176211,0.609340083810088,0.4376445460964067,0.38887847871783915,0.32613332303807285,0.45924157244899294,0.26427754637571527,0.16986816922656442,0.2508989983830128,0.13030969576014603],[0.4070732566740537,0.16148021029042522,0.03276726238858235,0.1112161194273219,0.04842841705207638,0.07161900632499069,0,0.07069958992075714,0.16570625971174707,0.22500406985980817,0.21073223371893426,0.12256405069862171,0.2351869497956474,0.24953301378962023,0.36508200055566514,0.2509913207632071,0.36670272277767385,0.13322471321006912,0.2643913692814299,0.39801722420303126,0.3044506858840962,0.3070299996506545,0.41729745980632577,0.38145688634655234,0.29557801722708366,0.3414339658652047,0.468851775267407,0.44237118040753787,0.5443328912575659,0.5621412415286089,0.6978062431467936,0.6109741862543101,0.3071280340155185,0.7200218276560375,0.6698815082905023,0.43556279918324403,0.4610854887649507,0.6487575015275963,0.4132307265538477,0.5179160853947302,0.7590019418506169,0.6247386596844137,0.49028863915237925,0.518640056978814,0.7102908513205493,0.48654876251884505,0.9064821294612002,0.8586377064765502,0.7773741969973452,0.556582208389855,0.7402902267681656,0.8634528698237626,0.8650019040794633,0.569825879381988,0.6466108086054242,0.8054101261746857,0.753264860846371,0.7503313594834943,0.9305121056368074,0.8636804961249085,0.7301084556198525,0.9171960578484275,0.9212557034434082,0.6828595712670318,0.9387052848937344,0.6628191724171223,0.7306050265631278,0.7994451469964646,0.9557413665354879,0.8409703161598095,0.8786021269692144,0.5882247266350117,0.5054193331521517,0.45253077633525435,0.6812146447602675,0.5910723947631945,0.8294398174366631,0.5596077633943721,0.5741235971796677,0.6552514925481754,0.6969434914596921,0.462700499867198,0.473122859653961,0.3338024509136125,0.5462650347545802,0.3153655214435987,0.19569526107910148,0.25383023264802046,0.21677015829906157],[0.43524592907739323,0.2293325480055576,0.13658866259081892,0.20606945956696718,0.029338211547338452,0.07991355547203166,0.07069958992075714,0,0.05513522046381375,0.1522850638612567,0.12334545384636071,0.0566225151979171,0.19255409478174124,0.14936711064650246,0.27589617940926314,0.23748136992904428,0.4391071209436439,0.15599715907397335,0.3398793931639386,0.48773369545654677,0.3430923206182341,0.24277544096648282,0.4124910662531721,0.42409472603994675,0.1862835831649036,0.2952689379572323,0.37832055596945596,0.33301408014044787,0.46030200164293633,0.48456609589062155,0.6239967679173096,0.5496278062808866,0.3011546815083766,0.6557340035361238,0.5739605648131318,0.411149156056514,0.359850675053123,0.6072178430643527,0.3398836609031956,0.4741472132172984,0.7102422965360542,0.5727332620899684,0.432901115284742,0.486973005792777,0.655853644571005,0.49221834878848314,0.8523493200718515,0.799080723069274,0.7641644071799277,0.5401447608881869,0.7069802177774942,0.8351027881563394,0.8237187253550539,0.5747858698381711,0.6356464676362219,0.7992234099552108,0.7317304197308239,0.7682272380192423,0.899586372651037,0.8478758695919786,0.7321433844157272,0.9098393262288414,0.9438640802219898,0.6941028861177725,0.9194906215274045,0.6902935314745999,0.7809091002400945,0.8291178889953121,0.9551187389125579,0.8421692523611694,0.8934783097699799,0.6486649626438554,0.5699793558228609,0.517510625396095,0.7421207577015361,0.6114354746216114,0.8651069007764058,0.6418147835288909,0.612093894034001,0.7011945849711688,0.7285355638870303,0.5493874543253034,0.5098094112474678,0.4286643379656763,0.5791332917075288,0.3833993275518005,0.2781974708485973,0.3497263374504198,0.25233615577746904],[0.4504960144151649,0.2881899208856341,0.2240799863115017,0.28436186249085865,0.09605907866636093,0.13194182156328316,0.16570625971174707,0.05513522046381375,0,0.0992737538433881,0.056503826772784704,0.056266021643791075,0.16600707800236542,0.06000466342712291,0.19213710249755364,0.23201387947911103,0.4909834292361094,0.19408229502242666,0.3977267031020954,0.553398369584445,0.371738025686353,0.18672689407479773,0.40055925911289075,0.4518968031792214,0.08874200624739632,0.25296098717073984,0.2910331037882965,0.23548887889312536,0.37698757400450567,0.40609942364190754,0.5467548343896341,0.48355955242096416,0.29557029369013205,0.5856904778337179,0.48135629037998007,0.3819254518816111,0.2651190504920725,0.5568784818698427,0.26873507585184475,0.42516019455988147,0.652191564170851,0.514143756744716,0.37308549336807423,0.4482799508814794,0.5938498827550068,0.48598586850466724,0.7884696064713466,0.7313594064855395,0.7352462173691846,0.5131438137387644,0.6618894737358901,0.7924610623183006,0.7704911132456974,0.5653496134267701,0.6109781814905962,0.7757836925447281,0.6962281795864944,0.7659634812175008,0.8541199301428444,0.8156247310420494,0.716794892723386,0.8840280154789523,0.9434352116818886,0.6873733912496336,0.8835756628938318,0.6976634028596798,0.8067837835911984,0.8362057487067532,0.9345578340307774,0.8244628408867948,0.8869032514518609,0.6855199423244965,0.6119323433481573,0.5610110367196124,0.7779567154113177,0.6143395068996061,0.8769894110014225,0.6983015619667529,0.6301516066032044,0.7244326489388567,0.7387979868702935,0.6112957246421038,0.5294969186793153,0.5000153242284051,0.5935934075193572,0.4335761581212782,0.344175088086035,0.4236419519823547,0.2857171055480647],[0.33809728927973326,0.24909902431848338,0.25138253422279283,0.2816343728073546,0.13417337449475225,0.1289212105426855,0.22500406985980817,0.1522850638612567,0.0992737538433881,0,0.003116969147213252,0.06104443034648933,0.03690694947887539,0.048126174027961634,0.10361080113874015,0.114444683546497,0.42251686077473505,0.14381478549430987,0.3447612709409276,0.5048132413090994,0.27891622743049993,0.04865802416575732,0.26755407287686017,0.35312908665280535,0.1179116691871923,0.11127770356474638,0.2056659783456986,0.23212919327138762,0.2771454077041731,0.2952766683867684,0.43263742372452596,0.35493410637401296,0.17161944965831438,0.46133947105695994,0.40946544233703874,0.2415106028260343,0.21598967074476463,0.4178082378728345,0.14738485437090407,0.2852523709284391,0.5172261621594126,0.37930592136931784,0.2387945053295418,0.3066123452191372,0.4616399377624421,0.3548355486035235,0.6579384632766351,0.604390809892607,0.593917574969514,0.3725794279799749,0.5213646127803028,0.651544857534021,0.63300802027577,0.4312341007546304,0.4706280826767064,0.6353403335231131,0.5545479070794375,0.6341973664410294,0.7138925129691972,0.6739816543547124,0.5789547694600224,0.7429953711458732,0.811764447031093,0.5536529799107816,0.7419360663667108,0.5729687377498922,0.6970193975173599,0.7100098838314409,0.794536207823864,0.6854553895998409,0.7521913224539498,0.5899422970757047,0.5246540881827476,0.4774643060218521,0.6794321780596985,0.48740183646988994,0.75405349695469,0.629501169651256,0.5155420698647335,0.6131977537200709,0.6158699997167271,0.5539200669586881,0.41887054229217296,0.4646579790001585,0.476383608393487,0.365869989211351,0.31024334269355375,0.39802685554839895,0.20835443406761736],[0.3791728147930098,0.2673171211921741,0.24813028574344273,0.2888052400807037,0.12160394682490748,0.12983295602926817,0.21073223371893426,0.12334545384636071,0.056503826772784704,0.003116969147213252,0,0.04798189357545878,0.07991355547203166,0.013231701624698248,0.11251056411316607,0.15523918620698854,0.4519073650594296,0.16242545137055228,0.36883153421864096,0.5288204115283486,0.31431971181966845,0.08782070301638999,0.31272546927989525,0.39071683220849435,0.08302437956184658,0.15535966713167687,0.21617144839541705,0.2123268790774795,0.2952766683867684,0.3188182457485721,0.458416110582237,0.3881333606853276,0.21474916002029446,0.4923745725173381,0.41678611358559103,0.2867269016509209,0.21163422647825536,0.4580432957175039,0.17531962832071699,0.3262466353810866,0.554480123409537,0.4163794711836129,0.2753144009188164,0.3502452364013637,0.49711766662746787,0.39983382198538164,0.6925825789591894,0.6370194826256992,0.6384970822203337,0.4176805965171481,0.5629934393529199,0.6936242483581407,0.6720350093416669,0.47661501663701894,0.5157759506493322,0.6804241837840656,0.5982166632072335,0.6793996301991451,0.7552063527147415,0.7180282679405972,0.6244607916459611,0.7877828460754699,0.8569906441437825,0.5990290727603813,0.7853187210339383,0.6171001488319131,0.7382029674477536,0.7544696343943784,0.8397312817787594,0.7308548803831239,0.7976602897728143,0.6275051561959614,0.5598440365662297,0.5114543782736598,0.717913260462976,0.5318541561981965,0.7979818438305439,0.659918605278751,0.5575706679941257,0.6546113701147775,0.6597141501753062,0.5807732968543493,0.4597694678557135,0.4844050790669289,0.5189214784961382,0.39461753675282313,0.32791748965771816,0.4141864916521878,0.2380915966983646],[0.3558560800197839,0.19414851456285412,0.15799355105854315,0.20328563122889814,0.0320695487812929,0.043464971154976724,0.12256405069862171,0.0566225151979171,0.056266021643791075,0.06104443034648933,0.04798189357545878,0,0.09363420086690327,0.09536925797230171,0.20054512063241667,0.14462604239159524,0.3932887298133704,0.09605907866636103,0.3019543987866269,0.4595712471184368,0.2737071829669549,0.14808330294342942,0.31867730057970595,0.35422312112174237,0.15605142410072873,0.19652702372813563,0.30424083840745153,0.2966806717365447,0.37952870347859374,0.39870792441358904,0.5359759506607114,0.4554493698608062,0.20904703747126463,0.5629632553793386,0.5062739923730811,0.31288714408305596,0.30189469765991916,0.5086453016085961,0.2507253981177005,0.3756191199256124,0.6128791404470822,0.4758247847322605,0.3370049173820312,0.387978723553914,0.5597204924355339,0.40106871354682927,0.7564196355733285,0.7047475104736485,0.6665699600036411,0.4425811407593014,0.6079708473178277,0.7360849636503703,0.7253138123376374,0.4825883723719819,0.5387674634255813,0.7028864817690448,0.6331297540775902,0.6796581643986613,0.8005622474517347,0.7497828989672136,0.6381174344594274,0.8130424636175346,0.856457893614809,0.6033426410051709,0.8209505484911984,0.6066972581210961,0.7100827373280453,0.7456067618959241,0.8597379355430235,0.747532377582645,0.8031255144374846,0.5870667087216038,0.5132565733271993,0.4623670510690683,0.6796455110331729,0.5251441403206428,0.7845378047573992,0.601070822116851,0.5351968808206973,0.6282392745299301,0.6467471851220205,0.5157759506493323,0.4338228859427511,0.4094798843196794,0.49969519722280514,0.3357644619685809,0.25245680154873207,0.3356091188342666,0.1870684135108444],[0.25891943817226926,0.2013656899727348,0.24079600083896896,0.2513825342227928,0.1502904910958527,0.12334545384636071,0.2351869497956474,0.19255409478174124,0.16600707800236542,0.03690694947887539,0.07991355547203166,0.09363420086690327,0,0.12724464462446694,0.14745876762040327,0.03596335917817556,0.3541836302776454,0.10340506899386429,0.2848448128450916,0.44308077690321857,0.20440927634629147,0.04503138774934721,0.19248325831897786,0.276043763435852,0.1963466899358211,0.06414266617765345,0.23773423959570733,0.2995668117616164,0.2924276145140329,0.2991543614439882,0.4278074052756979,0.3343467467087841,0.09252879005584681,0.4439087846320104,0.4393625303803318,0.17752053733375608,0.26789075916319344,0.37511612544997724,0.1519982606682387,0.2426346717798697,0.4825659966906458,0.34735260645339405,0.21320154459593404,0.2520359873780833,0.4327445660700541,0.27876691544400417,0.6290892243356854,0.5811606467132098,0.5317245891438565,0.3080454233469329,0.47255796302812797,0.6002041251793275,0.5920030041532741,0.357164828565298,0.40507972241845264,0.5697107467981678,0.4972047501902209,0.558748594932441,0.6649886379212903,0.6143116828781259,0.508600296832852,0.6791174872387689,0.7363531716728974,0.4793664006597933,0.6850535994943315,0.49483153348513514,0.617756872765035,0.6323719425066108,0.7276919850130614,0.6167557008770088,0.6787049258771957,0.5124691272617645,0.4492790791166385,0.40341700175422035,0.6012817378540518,0.40978883219884127,0.6756631450847083,0.5589048986887397,0.43622863435992326,0.5339074145799093,0.5373913965291093,0.48801982627410706,0.3397129141547812,0.409494325840782,0.39713691891109737,0.2989211831489789,0.26121076742517185,0.3493933484593906,0.14308443529598347],[0.4285618100742083,0.32235190664550945,0.29457150478994576,0.3403980013859223,0.16460582439806676,0.1805135052133002,0.24953301378962023,0.14936711064650246,0.06000466342712291,0.048126174027961634,0.013231701624698248,0.09536925797230171,0.12724464462446694,0,0.09007624459861047,0.20497973711202686,0.5073143311515828,0.21777539773402674,0.42444153213663083,0.584396085483294,0.36792599175026225,0.10916334879653776,0.353024302795801,0.44316948755241603,0.028131969148839052,0.18376421257906872,0.18880372727896902,0.15924177731297795,0.27463585386812134,0.30469989124841607,0.44541211197771274,0.38749929856788595,0.2613740793695045,0.487009987636026,0.38218374945045924,0.31816003026039447,0.16937570865428228,0.47068659346286645,0.17222233285909105,0.34215077734162497,0.5598592069052175,0.42253721367714303,0.2825966179165594,0.3735250497313817,0.4994375141493418,0.4407719599105018,0.6921829103298307,0.6333190741789192,0.6641467747096972,0.4472894455772285,0.5785387186090338,0.7099023252992535,0.6806083409295459,0.5147625390668933,0.5452664432986677,0.7089457657538231,0.6200778626349047,0.7186579259509057,0.7691235743433577,0.7410052923720825,0.6578881424697539,0.814186019998132,0.8959046064718517,0.6369695335635703,0.805547130279372,0.6608861715578023,0.78740071739507,0.7971209832668676,0.868798514047617,0.7621585548771045,0.8341131064489398,0.6800394689667704,0.6136753835155413,0.56576181018808,0.7697971861867888,0.574735113706111,0.8422164677985114,0.715216757012949,0.60564677755746,0.7035236719911229,0.7042459793198083,0.6364044691828716,0.5093483201419743,0.5394610059613462,0.5662123307461189,0.45008540303142835,0.38273671580818336,0.46851212257015956,0.2933142234909845],[0.4179953811835216,0.3878748429148731,0.3968807284546886,0.4267423845605704,0.27500923424927337,0.27476242042316085,0.36508200055566514,0.27589617940926314,0.19213710249755364,0.10361080113874015,0.11251056411316607,0.20054512063241667,0.14745876762040327,0.09007624459861047,0,0.21620551748058867,0.5410307665052195,0.28461739615998094,0.4747097427632213,0.6326170677603664,0.38585594392360345,0.06958632755318646,0.3116838420741482,0.4491430142885063,0.10707584454688064,0.13159149381623658,0.061362504564879454,0.1286639066180284,0.14271289187431171,0.17247759048721634,0.3131405315309657,0.2625190943419062,0.2514769253213286,0.3575272471598704,0.26391984625057663,0.2538830992108156,0.07845639510682235,0.36043105819374355,0.054224429011605305,0.24172199159729493,0.43886649212648127,0.30436506839413235,0.1708741586836482,0.2860600096755884,0.3758906726683316,0.3963225328395035,0.5651068877214039,0.5042339365508627,0.5732126040226061,0.37073224152994355,0.47077816217036184,0.601658780311343,0.5621973724929386,0.45853858355728105,0.4652008121185105,0.6234226544257833,0.5224586117280666,0.6607859482202352,0.6569108290284873,0.6437977048953575,0.5848795198270192,0.7228583248520553,0.8345076247531079,0.5767621136553583,0.7027884041458154,0.6192202820618796,0.7661103982879968,0.7489916564334365,0.7825451000274752,0.6822312286127682,0.7663912423431958,0.6798190235753709,0.6249068897048368,0.5826241222749557,0.7637095587038067,0.5319655150405006,0.7991132950328876,0.742480032486819,0.5826533568361857,0.6822762569469322,0.6644588979689013,0.6759212070697158,0.4963986901986874,0.5990840106761254,0.5408187626299656,0.4869680746851448,0.4486282821694734,0.5369545100864282,0.33264102455294137],[0.1815722099099011,0.1580000638972523,0.2358819522692451,0.2247696847540037,0.17998006199263605,0.1382724343478242,0.2509913207632071,0.23748136992904428,0.23201387947911103,0.114444683546497,0.15523918620698854,0.14462604239159524,0.03596335917817556,0.20497973711202686,0.21620551748058867,0,0.28253938531500294,0.08433642551405605,0.22303962021898904,0.3769992442992277,0.1282112567434426,0.10526401730622528,0.13260122410435465,0.19785484256119154,0.2745123255905959,0.07970263694901153,0.29633406958495134,0.37537863290446694,0.33736939046221576,0.334738014856375,0.4515382254812766,0.3457620549089356,0.02202035096260814,0.45505596595463044,0.4915758870833411,0.1423176393853794,0.3369154648405239,0.3602301263320203,0.19790508709286,0.23405738523004432,0.4743695202817464,0.34606119936655416,0.2265335136258643,0.22663540997221113,0.4321426071217201,0.21403760256585588,0.6249029778604619,0.5836527740887514,0.4877392349379277,0.26477507743525414,0.4475772179056331,0.5700518174399682,0.5745955128140312,0.29569384910926183,0.3578599911473947,0.5202870436863114,0.4605096667409182,0.49301363815373916,0.637184672599887,0.5730069145020155,0.4522801868757032,0.6314021722118596,0.6701178510519962,0.41630834283542767,0.6468778539644452,0.42332818127422756,0.540617315527324,0.561791384975164,0.6753868069115311,0.5622837176485539,0.6160959964008884,0.4341242686887917,0.3717514196411138,0.3267737879980141,0.522934406162028,0.33998607235629985,0.603126332919757,0.48445215061288194,0.3600226075667959,0.45697284298906826,0.464827837577908,0.417740166889282,0.26225359433022155,0.3503648849607267,0.3217547413480776,0.22922805967901186,0.21270064114405007,0.29832413246517897,0.08082777732245007],[0.1577214509003213,0.16772842644092126,0.2965680649103068,0.21919121162781038,0.3682916263601805,0.32094292537666036,0.36670272277767385,0.4391071209436439,0.4909834292361094,0.42251686077473505,0.4519073650594296,0.3932887298133704,0.3541836302776454,0.5073143311515828,0.5410307665052195,0.28253938531500294,0,0.2548232094077014,0.059940921331064025,0.067468563516252,0.11755101353674656,0.43014365907726987,0.2827331322018216,0.09396000920916443,0.577307845700649,0.3901205072634579,0.6185452650037184,0.6953936570812975,0.6477294352485893,0.6343362444945951,0.7259324036807216,0.6063352155892574,0.2609570299246675,0.7043368740620917,0.8061026167184587,0.3591362059042217,0.661822754952766,0.559048141448992,0.5148211002620755,0.4745967809064967,0.6745061784161573,0.5805721987692246,0.5061693146499101,0.4313305400844103,0.6569108290284872,0.27759438473163517,0.8218405314487,0.8020442638880177,0.5591414479270591,0.4007212878993515,0.6005777397012044,0.6864606865961432,0.7356237650900654,0.33268017367642905,0.44554319870678116,0.5592195538494347,0.5683231886288127,0.43484681077354753,0.7547447555466201,0.6425354706370205,0.4676223370462744,0.6620006576648267,0.5785092903194493,0.39794387089320266,0.7208396828313741,0.33024690203759915,0.3378124760114168,0.4468548020219512,0.6758503401262576,0.5663602861580896,0.5593952551111453,0.18520235236317467,0.09995611590464425,0.04923308575169312,0.27577006384471237,0.2944949992451614,0.46084434621621656,0.16588962256291345,0.22432598762446274,0.2748087126432273,0.3483960189414774,0.09331963129651681,0.1551549710064068,0.08868228095479808,0.21864805726506398,0.015196763428851368,0.13014525591361692,0.11704636229108424,0.1718617202088794],[0.23953154135856558,0.06309322691721973,0.10924082915889048,0.10584621111765774,0.085423339259352,0.034398935368285706,0.13322471321006912,0.15599715907397335,0.19408229502242666,0.14381478549430987,0.16242545137055228,0.09605907866636103,0.10340506899386429,0.21777539773402674,0.28461739615998094,0.08433642551405605,0.2548232094077014,0,0.16528563899518023,0.32464907885645466,0.1446888376912597,0.19054012164742776,0.242144298032388,0.22569625940541904,0.2856544495718804,0.1960950880573595,0.38086293373534025,0.4158129836873449,0.43824233005589475,0.4438551042747618,0.5689554517892129,0.4683767093130612,0.13353841106980854,0.5781644550036009,0.5839049841732727,0.26697242787944725,0.40132763356638196,0.48686204475882155,0.2977145215562828,0.36053796493994394,0.601099218646524,0.47197468433670875,0.3475802547805161,0.35244625496008325,0.5581381869019992,0.3112596893948171,0.7515011286530738,0.7093365224032165,0.6024203003741153,0.3831110955457442,0.5722747806218605,0.6924316185806342,0.7006484999958547,0.3946264963916413,0.47157615310551065,0.6297963712811082,0.5802934868181912,0.5790282848316964,0.7602859146491884,0.6890169585290064,0.5547883676935935,0.7415898609461625,0.7523687039819043,0.5091779736860081,0.7646076780506983,0.495967328335958,0.5826095044815607,0.6342378754844019,0.7803286721876042,0.6656599331440574,0.7064296370173738,0.4529657093792105,0.37685995759106194,0.32533206056370095,0.5461563814393685,0.4203339278741139,0.6683516283981562,0.4627004998671979,0.4143779761710069,0.502792258468778,0.5327535004893287,0.3787267561907939,0.31207066867255095,0.2798015322002534,0.38253404502572785,0.19729601262436122,0.12417216823286396,0.2118037158386907,0.053991155681110556],[0.18156055495745088,0.0684147882249002,0.1943911611145676,0.11780376140678847,0.27001920579516026,0.22470617006122515,0.2643913692814299,0.3398793931639386,0.3977267031020954,0.3447612709409276,0.36883153421864096,0.3019543987866269,0.2848448128450916,0.42444153213663083,0.4747097427632213,0.22303962021898904,0.059940921331064025,0.16528563899518023,0,0.11774672417184302,0.09377803592373601,0.3678114652425034,0.2774352740808038,0.12541140906355103,0.49305751542660325,0.34162094138336985,0.5609980584166377,0.6192735435539374,0.6016101420754026,0.5950856698126041,0.7004974217276038,0.5853100818491602,0.22108157733332423,0.6895271415902011,0.7569031267189682,0.34300512756433016,0.5950508628630942,0.5595101923760175,0.4631499196214913,0.45760755865979214,0.6774404391317171,0.5691134154376721,0.47500307591509755,0.42441147648541283,0.65072997661463,0.29957826161421713,0.8283207916358327,0.8005328282905276,0.5985934723547829,0.41341974919087465,0.6171496237011684,0.7163632538050025,0.752762743488242,0.36949512563454445,0.47553002694323915,0.6076275855690446,0.5975990316957714,0.5039210596382954,0.7856624061315984,0.6848741572454676,0.5190493507370413,0.7152925550652145,0.6590483291682989,0.4550953203440974,0.763654506250406,0.4032032335440634,0.4342639360351025,0.5293919270219474,0.7371103607552658,0.6241573527589176,0.6318398061468737,0.2850810391078518,0.20060555098893113,0.14825623177628866,0.3768879742773599,0.3520361540046289,0.5492374605285965,0.2597974590044151,0.301150882445702,0.36581563887277135,0.4279295233844856,0.1714120067192913,0.21304831111708625,0.0853033117577822,0.2854435192959987,0.014490048115315905,0.028556256341608778,0.053328832077642156,0.10051198896089106],[0.26700617628512113,0.22311828062671876,0.32316684179546934,0.24445928327449418,0.4208293833790059,0.3791101163241442,0.39801722420303126,0.48773369545654677,0.553398369584445,0.5048132413090994,0.5288204115283486,0.4595712471184368,0.44308077690321857,0.584396085483294,0.6326170677603664,0.3769992442992277,0.067468563516252,0.32464907885645466,0.11774672417184302,0,0.2215406185763843,0.5239487513244744,0.3923988514063336,0.20349803272403816,0.6527043653532943,0.4907001132040127,0.7156611011586952,0.7793492629090111,0.7502193923761584,0.7392138969766993,0.8342917782413495,0.7152064203273519,0.3636485175412051,0.8139452377533434,0.9076148782133497,0.46807765098894116,0.7533091501071603,0.668772031097877,0.61457993683869,0.5837444986007739,0.783948869174478,0.6903042196162505,0.6129309256446268,0.5411454066890647,0.7667881314165143,0.38582927591774735,0.9307280699402978,0.911730338592193,0.6594333920818474,0.5096273853878488,0.7081323402623289,0.7899119974495019,0.8426914329508908,0.43640585230418444,0.5503636907552183,0.6548921979141876,0.672566438154422,0.5168061980596567,0.8575433839303543,0.740840335175039,0.5625362064838705,0.7537060031016332,0.6445695118544074,0.49028863915237925,0.8184176157493972,0.411051303016467,0.3782305807538909,0.5125749685597379,0.7614655531989164,0.6557956960048689,0.6357446323245114,0.2225339163635031,0.14598365307221173,0.11610224375234267,0.29835860613131954,0.38895413004820656,0.516491017894967,0.12572415878640064,0.30557867501514596,0.33208118003678816,0.4210385418400213,0.024621618664218442,0.25487699699727173,0.028886545949531984,0.30940589254425027,0.10772926995821562,0.16766785826416505,0.10437972864988072,0.25760737754477714],[0.06361462858417741,0.11378592619314368,0.25256633613911594,0.1965038065578384,0.27232096166094427,0.22122890404643025,0.3044506858840962,0.3430923206182341,0.371738025686353,0.27891622743049993,0.31431971181966845,0.2737071829669549,0.20440927634629147,0.36792599175026225,0.38585594392360345,0.1282112567434426,0.11755101353674656,0.1446888376912597,0.09377803592373601,0.2215406185763843,0,0.2740414472392373,0.14127605513342836,0.03872906378271704,0.43843509262226765,0.23033096719905036,0.4596004977229878,0.5458258633643062,0.48785985817965527,0.47541913444705614,0.5721303730715656,0.4545519545225933,0.10099746364965322,0.5566606479822301,0.6461503384463183,0.20922345652364574,0.5060860340134423,0.423423455437298,0.3550983150219003,0.3247744020827403,0.5412997159593548,0.4349643939819413,0.3492534086613562,0.28886927010371355,0.5155724799104517,0.1698866142756883,0.6921331585744807,0.6648336331528344,0.4726137202880867,0.2784741844383434,0.4821182826153184,0.5848420656838363,0.617541333651716,0.24628366557068795,0.34597047202443426,0.4875865702673774,0.4665156114657864,0.40719229733456674,0.6542405040801681,0.5598006906347849,0.4030098753474652,0.5978049750712517,0.5752107886941614,0.3462157230923796,0.6382651004169037,0.316280036701142,0.3957956466868048,0.4525861526739336,0.6266590464672978,0.5119042990242422,0.5362534523597343,0.2720440217713644,0.20337194147400528,0.15660309843878123,0.36396340228099533,0.24841428982808833,0.4836463992662433,0.3142145046905832,0.22860269176978906,0.3156937038552992,0.3501255513719635,0.25300959114029986,0.12671489773897587,0.2133087533972425,0.19941566476223577,0.07222690525298286,0.1295162930509047,0.18864561133695312,0.0485576423643829],[0.30835812872473206,0.2884701118889443,0.32229822865006,0.33806898906980987,0.21738884102912806,0.20099597175438622,0.3070299996506545,0.24277544096648282,0.18672689407479773,0.04865802416575732,0.08782070301638999,0.14808330294342942,0.04503138774934721,0.10916334879653776,0.06958632755318646,0.10526401730622528,0.43014365907726987,0.19054012164742776,0.3678114652425034,0.5239487513244744,0.2740414472392373,0,0.21145434138296135,0.33742351581722946,0.16529977813964689,0.03346286063258237,0.1513796071494929,0.23582683815037545,0.20566597834569864,0.21544356891230945,0.34858634156039814,0.26502990924599,0.14024996892955505,0.3725228108808513,0.3520295359790438,0.16776103284473096,0.18966019121157865,0.32787871821022574,0.06643320512069661,0.19604035686727586,0.426172408833417,0.2882382806484148,0.14781074989619095,0.2226619715335475,0.37073224152994344,0.29867253904100666,0.567168046087565,0.5144274506644751,0.5128782684718171,0.2958868141117008,0.4328736542398785,0.5636614136003776,0.5423988279093617,0.36826063953409016,0.3937775013072425,0.5573726711645657,0.47010627839699337,0.5724361371590092,0.6249968557972362,0.590614824569789,0.5074003931663386,0.6628191724171222,0.7488893965753174,0.48967083144020845,0.6565598567702521,0.5215659938417826,0.6608175015522391,0.6551298770652707,0.7172280045866293,0.6108762953329595,0.6851163938252645,0.5693524179707894,0.5131367655045713,0.470633170836055,0.6544652949349233,0.43443093540842453,0.7027726404666519,0.6306365977309448,0.47725085796785094,0.5767115195376075,0.5660857896150903,0.5654118902345794,0.3877451464811163,0.49389293528277683,0.4360104298499013,0.376838165540661,0.34790475863846676,0.43588218827803643,0.22493572876394233],[0.09271003084855924,0.2712835168627484,0.3878938011064671,0.35339051272365296,0.3534564604749845,0.3086147854625733,0.41729745980632577,0.4124910662531721,0.40055925911289075,0.26755407287686017,0.31272546927989525,0.31867730057970595,0.19248325831897786,0.353024302795801,0.3116838420741482,0.13260122410435465,0.2827331322018216,0.242144298032388,0.2774352740808038,0.3923988514063336,0.14127605513342836,0.21145434138296135,0,0.1500278469258667,0.4164271210082715,0.13855394402785945,0.35256110605995744,0.48275429558576183,0.3533830929139986,0.3287650413587091,0.4039400087704762,0.282996964277281,0.06955135973843721,0.3791968080362194,0.5111284875918677,0.038712975983179077,0.41901411960357304,0.23978026124919335,0.24481849776653394,0.1507775527985271,0.35761453767697754,0.2555162144353993,0.1948757098328627,0.10679399181681098,0.3335447626751306,0.04538889986447316,0.5085262678242599,0.4816795253168626,0.31787304138156613,0.10218258313240045,0.3026435291394564,0.4138683641160207,0.4370126676622545,0.12238990240057683,0.1870229069582378,0.3466982142196559,0.29851465160708857,0.32426484316615023,0.48282885074416504,0.40458578962749553,0.27729139439909306,0.45826688760392675,0.5018619929087317,0.2444774821602363,0.48064496946875246,0.26770878352927496,0.41325292645696177,0.40214973274554777,0.5006063405687784,0.38729203974731163,0.4439349516579024,0.3441708677229069,0.3087439727203282,0.28092872291827603,0.4196755541786674,0.18063642631677795,0.4489810148472478,0.44462150075808066,0.23071712735907002,0.329986753464271,0.31225380348930243,0.40924803472508653,0.1562666936118571,0.39453614495346695,0.1884124753523437,0.2503544839259457,0.3050071548806442,0.3718231093291262,0.18067299689981944],[0.0214710473513193,0.18318494325219115,0.32500804678057726,0.2614932846206963,0.3531521848710815,0.30207566444798784,0.38145688634655234,0.42409472603994675,0.4518968031792214,0.35312908665280535,0.39071683220849435,0.35422312112174237,0.276043763435852,0.44316948755241603,0.4491430142885063,0.19785484256119154,0.09396000920916443,0.22569625940541904,0.12541140906355103,0.20349803272403816,0.03872906378271704,0.33742351581722946,0.1500278469258667,0,0.5133974906431709,0.28358705318726407,0.5141930032494192,0.6138723045376042,0.5319677874451336,0.5134327143900712,0.5961555683467176,0.4754014902694223,0.15559711320104483,0.570682297920711,0.6911000481717811,0.2292713011018695,0.5675169585208901,0.4228823755176278,0.4068205537145168,0.3431913412369314,0.5381450398048232,0.4464758405387876,0.38172239343832565,0.2969230825965449,0.5214062837288765,0.1422893746987035,0.6855809035307928,0.6658239717076455,0.43339788623842945,0.26453279125016205,0.4653910521678002,0.5558103379058829,0.6007847586004743,0.20427835995855348,0.31416326215464957,0.4402070593567114,0.43709229344651157,0.3404056728754537,0.6246956172833236,0.5189307792776788,0.3512577745145705,0.5475009405373913,0.5029454531791245,0.28769308347540856,0.5976989530935406,0.24394126834141278,0.3146570801688958,0.37734842490523424,0.5698493296614303,0.4565335551367228,0.469308545941835,0.19446418211951028,0.13336771006536746,0.09427787951595701,0.28502125110213883,0.18528835190204415,0.4055869497110102,0.2587894643235757,0.1503057304070757,0.23479289090770186,0.27459056575552604,0.2168117015103304,0.05091254449358417,0.2177264823810311,0.12524216484624623,0.07783928516226328,0.18234010045599014,0.21797222043015463,0.12937009014200884],[0.4974701474203639,0.3891779802682205,0.3489133465221418,0.40125115019683794,0.21802735424599903,0.2418459944009813,0.29557801722708366,0.1862835831649036,0.08874200624739632,0.1179116691871923,0.08302437956184658,0.15605142410072873,0.1963466899358211,0.028131969148839052,0.10707584454688064,0.2745123255905959,0.577307845700649,0.2856544495718804,0.49305751542660325,0.6527043653532943,0.43843509262226765,0.16529977813964689,0.4164271210082715,0.5133974906431709,0,0.24116445863437477,0.186042323566797,0.10448416957606897,0.2768256374108585,0.3145391746393422,0.4531863248101453,0.41162301291622455,0.32925350575019585,0.5037412534898705,0.3599082644083385,0.37515285517042285,0.14177809708175665,0.5081115214126476,0.20211946283496882,0.3848795742430678,0.5883318238120276,0.45367593772777115,0.31811930442725206,0.4227329771364711,0.5251182678697831,0.5041808078693631,0.712752203343177,0.6503885900368319,0.7132135429877428,0.50141336416158,0.6179283639377693,0.7491775870777766,0.7116573377527119,0.5757066860693014,0.5986011080875865,0.7605862694232707,0.6656447253974708,0.7799030026531611,0.8055452062176829,0.7870652269259701,0.7142613097345826,0.8633891097992468,0.956539684302585,0.6973207383026256,0.8485174079133736,0.725819853735874,0.8559099345052134,0.8609823991695918,0.9204464314358087,0.8162417235992135,0.8927064135655517,0.7502387407640259,0.68419681243304,0.6363001499371356,0.8397264730666603,0.6391633507099806,0.9072517622077394,0.7853498635208936,0.6736003138302896,0.7719088498324143,0.7696666070351277,0.7056566601015691,0.5782669794142963,0.6060087012462204,0.6337183077488242,0.5199778758140394,0.44894117073723977,0.5335035810053818,0.3635199229621096],[0.24654464189342856,0.27972860942938466,0.342428988365111,0.3426019206502455,0.25675456090059706,0.22869418170592684,0.3414339658652047,0.2952689379572323,0.25296098717073984,0.11127770356474638,0.15535966713167687,0.19652702372813563,0.06414266617765345,0.18376421257906872,0.13159149381623658,0.07970263694901153,0.3901205072634579,0.1960950880573595,0.34162094138336985,0.4907001132040127,0.23033096719905036,0.03346286063258237,0.13855394402785945,0.28358705318726407,0.24116445863437477,0,0.1883672338333397,0.30248840564362967,0.2177352627370468,0.2127351736808649,0.3311765216899407,0.23071712735907002,0.08753977412594166,0.3405922984262386,0.37450531326963543,0.09210979670213187,0.2442954413191965,0.26974754110892835,0.08237495066381237,0.13680728224032293,0.3760521161460128,0.24090658849209656,0.10946443927979028,0.15298102610287678,0.326482885822145,0.2247696847540037,0.5226567156090639,0.4755999526171573,0.44081180234640127,0.2213773854762101,0.36990606344634563,0.4991983854360684,0.4865185345377782,0.2926760235902894,0.31948157573551644,0.483680513747281,0.40087074374240583,0.49679279348943844,0.5626262784879,0.5203490888103691,0.43187780586449387,0.5902946379781315,0.6730970162133505,0.4138883876683299,0.5883318238120276,0.44800523297964806,0.5921176916219288,0.5804731969639619,0.6433481932896069,0.5360408257845791,0.6092634786034095,0.5088246920171856,0.45855095947926056,0.41967837879047154,0.5910059439387045,0.36072498352752286,0.6288690603324698,0.582867875805225,0.4086523362787516,0.5082750872979864,0.4928594297677882,0.5257250974626977,0.3235843277080345,0.4693334142002752,0.3668303172340226,0.34080693317461674,0.33479597802981825,0.42003978666440833,0.20155970149756444],[0.47421732605562056,0.4814559601804822,0.4994567844119761,0.5258841680225287,0.37871745827919556,0.3769471144683381,0.468851775267407,0.37832055596945596,0.2910331037882965,0.2056659783456986,0.21617144839541705,0.30424083840745153,0.23773423959570733,0.18880372727896902,0.061362504564879454,0.29633406958495134,0.6185452650037184,0.38086293373534025,0.5609980584166377,0.7156611011586952,0.4596004977229878,0.1513796071494929,0.35256110605995744,0.5141930032494192,0.186042323566797,0.1883672338333397,0,0.13134190039027704,0.048658024165757284,0.09082287187811991,0.2256621792672249,0.20383749404451182,0.31801792237416027,0.2820972500969653,0.16167856243734974,0.2809287229182761,0.04099767624622178,0.3242399251059128,0.06603374701051623,0.22953420495181456,0.3812720876288299,0.25779873720874685,0.15137792333507422,0.2858284644189892,0.31509089323012207,0.42941391472749,0.49253746037896856,0.42734292801191154,0.5546326258448131,0.37613008585563856,0.4337564190845598,0.5606058738480046,0.5064327551200587,0.4787951238052743,0.4622008906860924,0.6096559226066647,0.4973153986103601,0.6733395914916339,0.6092234200079087,0.6161747796413124,0.5851015977617744,0.7006533304801721,0.8407482902179254,0.5893408521812037,0.6672117104105864,0.6464947726084688,0.8060207014885588,0.7682220051413402,0.7649953404324524,0.6731353230402186,0.7678274293500241,0.7355444952673666,0.6886577439237963,0.6504319201348252,0.8142450622712338,0.5608114644544857,0.8216785442376813,0.8135927049242835,0.6250569894117417,0.7236965780818347,0.6921931267911389,0.7542660982576007,0.5482146141072803,0.6874873990838448,0.5826507466630956,0.5670882819255376,0.5413326970694397,0.629452118659769,0.4180860899574589],[0.5865911806305137,0.5212210559310975,0.4938783327077728,0.5420393866874189,0.3629697211851139,0.382125338753616,0.44237118040753787,0.33301408014044787,0.23548887889312536,0.23212919327138762,0.2123268790774795,0.2966806717365447,0.2995668117616164,0.15924177731297795,0.1286639066180284,0.37537863290446694,0.6953936570812975,0.4158129836873449,0.6192735435539374,0.7793492629090111,0.5458258633643062,0.23582683815037545,0.48275429558576183,0.6138723045376042,0.10448416957606897,0.30248840564362967,0.13134190039027704,0,0.21158669780291506,0.259636535547028,0.3820815254564346,0.3770210279805807,0.418130729121362,0.44773901559271795,0.24090658849209656,0.4231340699222828,0.04969834391271107,0.49735650809020515,0.2099266061946546,0.39479594830454257,0.5534597050286137,0.4315391951531324,0.31780057903293085,0.4462107933063485,0.4868959519871228,0.5671225443209503,0.6570148733810453,0.5892871331214341,0.7246721771764568,0.5342441980737287,0.6072354231087611,0.7343574177380757,0.6785125880165496,0.6274267313057466,0.6254616504040664,0.7782108407449929,0.6689917715761498,0.828143518128216,0.7825605260027138,0.7886561280833857,0.7472113544991557,0.8720681906867876,1,0.7439100954203858,0.8408014928658059,0.7897437950455348,0.9369686532785612,0.9182968145224203,0.9351905527953465,0.8400031163384529,0.9297561884103196,0.8473563648873199,0.7890141322806975,0.7445621673902943,0.932692017059294,0.7025619881959112,0.969136776734591,0.9008640546158884,0.7534399530692617,0.8530590774081419,0.8350860547025899,0.8279410898556882,0.6658069245250579,0.7379667560758195,0.7117006090401629,0.6393280212096838,0.5821075935373582,0.6687991009190809,0.4819689596440213],[0.4843127818543038,0.533107401768017,0.5679982584542893,0.586078950644304,0.45351607698788454,0.44547632212332705,0.5443328912575659,0.46030200164293633,0.37698757400450567,0.2771454077041731,0.2952766683867684,0.37952870347859374,0.2924276145140329,0.27463585386812134,0.14271289187431171,0.33736939046221576,0.6477294352485893,0.43824233005589475,0.6016101420754026,0.7502193923761584,0.48785985817965527,0.20566597834569864,0.3533830929139986,0.5319677874451336,0.2768256374108585,0.2177352627370468,0.048658024165757284,0.21158669780291506,0,0.007467506305194991,0.13465317068675603,0.12950680313024754,0.3445589484567688,0.1942147155716927,0.11672476016002321,0.2744330362464351,0.11983570435580976,0.26094734929339863,0.09853485177233463,0.19366247324871824,0.301339834898448,0.18973188911590752,0.12173122491116029,0.25502513697958373,0.23455147387130038,0.4195766818855227,0.4042966186128995,0.3379386094011206,0.49812009157091774,0.3444813634519186,0.366329280352484,0.48830457314996456,0.4259070188715885,0.45583394941378863,0.4201526687162645,0.5558076106099489,0.4370671140725933,0.6393643965372525,0.5323465852609102,0.5521637463839952,0.5426102591891628,0.6394333128887549,0.7994866192945622,0.5569302057834162,0.5972803005510594,0.6256082062085814,0.7941832969828712,0.73850680156653,0.7064257152915232,0.6218795990480842,0.7235330053887323,0.7398160732544918,0.7017749092781859,0.6684025856330005,0.8124101834719564,0.5431098036772489,0.7941739359949644,0.8331174610173735,0.6182939313045575,0.7143527262718427,0.6709320835789827,0.782702906002461,0.5520408017329429,0.7292983093493488,0.5762343612116338,0.6001203366779212,0.5908493190683365,0.677630344342255,0.4605096667409182],[0.4623586473825595,0.5339481786787472,0.5801362634034286,0.5920955786111641,0.4714847265887015,0.45870270250813505,0.5621412415286089,0.48456609589062155,0.40609942364190754,0.2952766683867684,0.3188182457485721,0.39870792441358904,0.2991543614439882,0.30469989124841607,0.17247759048721634,0.334738014856375,0.6343362444945951,0.4438551042747618,0.5950856698126041,0.7392138969766993,0.47541913444705614,0.21544356891230945,0.3287650413587091,0.5134327143900712,0.3145391746393422,0.2127351736808649,0.09082287187811991,0.259636535547028,0.007467506305194991,0,0.09830314915937123,0.07975339744778397,0.3335586493709233,0.14889692664454737,0.14257006323209234,0.24809883739724334,0.16756065638213968,0.21236658531271735,0.10694263164103816,0.15595768427606369,0.25200384790958535,0.14059085384506878,0.09170166016498384,0.21779546291105384,0.18525825575867136,0.38885351086658404,0.3593238770515784,0.29457150478994576,0.45022253230949805,0.3053563724111744,0.3168136399121267,0.4384289851350341,0.37680314022922645,0.41905654769437417,0.3765477561710324,0.5083864739302675,0.38853864056416376,0.5974700284543878,0.48268718689250195,0.5028826246173321,0.4982939217781269,0.5904802731272547,0.7549146118187053,0.5159016210877276,0.5474539216627816,0.5885863006781514,0.7601554142971536,0.697781115835154,0.65785412728364,0.5749460415093707,0.6782300977639066,0.7131565387373071,0.6796034821920788,0.6488929825436095,0.7826412110193041,0.5078364315040202,0.7540825844912321,0.813568308093369,0.587238266963274,0.6816830093854792,0.6335657868436191,0.7681173404886165,0.5263473438054811,0.7226344364975269,0.5456033800432064,0.5892313431083924,0.5898323760718771,0.6751590206465267,0.4565152430825624],[0.5383422877082622,0.6517930836409251,0.710947767152707,0.716129275140434,0.6076416407777178,0.591313413678892,0.6978062431467936,0.6239967679173096,0.5467548343896341,0.43263742372452596,0.458416110582237,0.5359759506607114,0.4278074052756979,0.44541211197771274,0.3131405315309657,0.4515382254812766,0.7259324036807216,0.5689554517892129,0.7004974217276038,0.8342917782413495,0.5721303730715656,0.34858634156039814,0.4039400087704762,0.5961555683467176,0.4531863248101453,0.3311765216899407,0.2256621792672249,0.3820815254564346,0.13465317068675603,0.09830314915937123,0,0.07922874500873388,0.4373637384092892,0.03839054732900544,0.16606343310782917,0.3247770680696432,0.2926954988674512,0.18863290089460788,0.24284865924582932,0.21096415024252682,0.1664324955209356,0.12563680287507656,0.1839300636540815,0.2640763914239525,0.10798767564624875,0.44320174195241224,0.23482937957560748,0.1655305814067321,0.41344480312577025,0.3340998310073887,0.26418709619325303,0.36320388947370186,0.28005157249096196,0.45008474047847513,0.3768124805984033,0.47400253593313996,0.3476262704615795,0.5978431998431859,0.3929560817437428,0.44565753643185485,0.4879330803342051,0.5361152821764824,0.7360342451839653,0.5234415177025918,0.4739545118056509,0.6120714588233537,0.7915862869305366,0.7016837015791378,0.607096778982797,0.5427909472638826,0.655987749018918,0.7700602896309362,0.7497116371172604,0.7263327779484258,0.8286276555828153,0.5409614122397585,0.7599651140714437,0.8884283351513607,0.6330171993827259,0.7196121426934499,0.654386158093017,0.8552616839093337,0.5903627105228182,0.8262238040096046,0.5939847472455221,0.686651822758902,0.7042892431010497,0.7864150983625992,0.5684385827394018],[0.4170184205378083,0.5439390205701674,0.6155348267051273,0.6128412948299363,0.5230706036346641,0.5000995367807295,0.6109741862543101,0.5496278062808866,0.48355955242096416,0.35493410637401296,0.3881333606853276,0.4554493698608062,0.3343467467087841,0.38749929856788595,0.2625190943419062,0.3457620549089356,0.6063352155892574,0.4683767093130612,0.5853100818491602,0.7152064203273519,0.4545519545225933,0.26502990924599,0.282996964277281,0.4754014902694223,0.41162301291622455,0.23071712735907002,0.20383749404451182,0.3770210279805807,0.12950680313024754,0.07975339744778397,0.07922874500873388,0,0.324040519625973,0.067468563516252,0.24024241356282677,0.20478972979559107,0.2852274736123874,0.09339413723666824,0.17295538310304517,0.08980998046266156,0.13587263683538514,0.020622590804059152,0.07893868149764786,0.14268292463101317,0.07116022852937323,0.3220512080453022,0.26253942553553034,0.20705503438483014,0.3317071941969454,0.21670971992031005,0.19483720241428842,0.3167264268348379,0.2608268533621975,0.33334682149711115,0.27118676329384117,0.39089459068405324,0.26861235137275064,0.49423294118313904,0.3631298715042677,0.3811981455686059,0.38924677575580996,0.46934361621312665,0.6438048376261558,0.415923347077255,0.4253939232088871,0.4987885492104305,0.6764402305926137,0.596904759013179,0.5374313529498537,0.4584753964532422,0.5655380349042065,0.6493686080618364,0.6280830739733697,0.6048683848555106,0.7098533116744818,0.4242793484624694,0.6545022848143669,0.7668038577656585,0.513781895800942,0.6024258666894484,0.5422665747715112,0.7346144638108766,0.4688332661798145,0.7097596130263332,0.4741491082839997,0.5686730434361557,0.5937365334523227,0.6735401555638586,0.45756579146213966],[0.1271369031049499,0.1821716222817539,0.28314233158924507,0.2588934478878998,0.24149681113468321,0.19705630952329117,0.3071280340155185,0.3011546815083766,0.29557029369013205,0.17161944965831438,0.21474916002029446,0.20904703747126463,0.09252879005584681,0.2613740793695045,0.2514769253213286,0.02202035096260814,0.2609570299246675,0.13353841106980854,0.22108157733332423,0.3636485175412051,0.10099746364965322,0.14024996892955505,0.06955135973843721,0.15559711320104483,0.32925350575019585,0.08753977412594166,0.31801792237416027,0.418130729121362,0.3445589484567688,0.3335586493709233,0.4373637384092892,0.324040519625973,0,0.4306653982852514,0.5027461719507605,0.09492329326890543,0.369510176830014,0.3185390124352798,0.21224360396796432,0.20115142894046684,0.43542282860293285,0.31450626381911667,0.2115404451483948,0.1815241293213281,0.39925128451708947,0.14961196700489166,0.5871885147031268,0.5510409322506495,0.4281091736441773,0.2072903662416754,0.3980646380234498,0.5166655562737175,0.5285850161993834,0.23144730597306515,0.29754851060419046,0.4585092709434471,0.4043871872389797,0.4286968928306378,0.5847250070691267,0.5141947619725731,0.3887082146875186,0.5699681661324887,0.6058999943600498,0.3518863940020473,0.5892065459652538,0.360618126389677,0.484342516950302,0.49869930842929566,0.6125080594493147,0.49898868447965267,0.5516696180850605,0.38681792949760285,0.3313302149051669,0.2906718082794772,0.4728132564775223,0.2764656404448601,0.5410866913598801,0.4532126603883024,0.30197334936095044,0.4002903078141116,0.4027687924742716,0.3963188141106334,0.20758291428634285,0.3478370365622777,0.26243668562203276,0.21352176130988973,0.22798915204396675,0.30718310792824205,0.09239330469918647],[0.5098726334626548,0.6523306026182347,0.7253971132780386,0.7222270048361025,0.6316113424619407,0.6096223938928601,0.7200218276560375,0.6557340035361238,0.5856904778337179,0.46133947105695994,0.4923745725173381,0.5629632553793386,0.4439087846320104,0.487009987636026,0.3575272471598704,0.45505596595463044,0.7043368740620917,0.5781644550036009,0.6895271415902011,0.8139452377533434,0.5566606479822301,0.3725228108808513,0.3791968080362194,0.570682297920711,0.5037412534898705,0.3405922984262386,0.2820972500969653,0.44773901559271795,0.1942147155716927,0.14889692664454737,0.03839054732900544,0.067468563516252,0.4306653982852514,0,0.24679297182223497,0.30505599133607886,0.35634981899188306,0.12792031651171343,0.27487762410118605,0.18958565814611775,0.08588198048742726,0.08203978886180348,0.1887740887772096,0.23149972747239225,0.03219211971367968,0.4049798125259669,0.16803255640564843,0.10433303952888892,0.3385763582763104,0.2872608296121498,0.18795399452480432,0.28250725031317353,0.20031938103835753,0.3997947148679593,0.3152223031392172,0.39903845575603786,0.2726939784275511,0.5320331152340131,0.3126914714630205,0.3663867552380445,0.4198817054851792,0.456859789458965,0.6631406701921466,0.46133623229316695,0.3932018462727091,0.5550980912858557,0.7360359218802969,0.6360885778104216,0.5281116464179343,0.4677624277247199,0.5826674515825297,0.7269675147685986,0.71417160730258,0.6954763558178552,0.779439395079216,0.4894837541599407,0.6946055639603905,0.8542942516151151,0.5860098948237837,0.6676971228790699,0.5957440845241986,0.8292103620092313,0.553748772838762,0.812378118190655,0.5489323925994766,0.6697472709948149,0.700979974017338,0.7793313941240253,0.5649715206556574],[0.6430226486002673,0.6828721685595972,0.7031351207613393,0.7296977834654813,0.5805659134080715,0.5807963351995709,0.6698815082905023,0.5739605648131318,0.48135629037998007,0.40946544233703874,0.41678611358559103,0.5062739923730811,0.4393625303803318,0.38218374945045924,0.26391984625057663,0.4915758870833411,0.8061026167184587,0.5839049841732727,0.7569031267189682,0.9076148782133497,0.6461503384463183,0.3520295359790438,0.5111284875918677,0.6911000481717811,0.3599082644083385,0.37450531326963543,0.16167856243734974,0.24090658849209656,0.11672476016002321,0.14257006323209234,0.16606343310782917,0.24024241356282677,0.5027461719507605,0.24679297182223497,0,0.43125270129648485,0.1757313725034186,0.37448026730868184,0.2513469908918564,0.34031957289529335,0.37426418340569323,0.30248840564362967,0.2756869848257844,0.40204402507255516,0.31270249813864215,0.5736973988851014,0.4307426440533129,0.3598044353782894,0.6105260653451332,0.48807088285431355,0.4654932125056613,0.5710605943263127,0.487992142941047,0.6029438297811408,0.5527320350233038,0.6705751989654505,0.5457076969178533,0.7755056745933289,0.6012183689949856,0.6503584457615492,0.6718335657627628,0.7405048983806749,0.9263278938898941,0.6955913226188531,0.6819425305142762,0.772049886801032,0.9448306669079213,0.877324030180026,0.81072283208954,0.7388493612461998,0.8477611427005619,0.8969122084197705,0.860535847443262,0.827513586591885,0.9674385845171919,0.6922641938945223,0.9343624264488736,0.9922393085042709,0.7721796833372848,0.8666211698853568,0.8167340870965523,0.9413023278322152,0.7095270511312982,0.8843460097057709,0.7304897796000641,0.7576796122146761,0.7419872352129463,0.8296534973006007,0.6147269332863601],[0.17366329552782148,0.318453120579585,0.4182561207668654,0.3961916146049542,0.3609070611181495,0.3222597545596518,0.43556279918324403,0.411149156056514,0.3819254518816111,0.2415106028260343,0.2867269016509209,0.31288714408305596,0.17752053733375608,0.31816003026039447,0.2538830992108156,0.1423176393853794,0.3591362059042217,0.26697242787944725,0.34300512756433016,0.46807765098894116,0.20922345652364574,0.16776103284473096,0.038712975983179077,0.2292713011018695,0.37515285517042285,0.09210979670213187,0.2809287229182761,0.4231340699222828,0.2744330362464351,0.24809883739724334,0.3247770680696432,0.20478972979559107,0.09492329326890543,0.30505599133607886,0.43125270129648485,0,0.35244212300309896,0.18139586391994225,0.17582708517182843,0.07342468279703415,0.29874428190074626,0.1836992812172713,0.11403641389121541,0.04419145338446987,0.2660545361261604,0.10611009022917642,0.45063832399491055,0.4170610329139239,0.3118708610000211,0.08880916470769246,0.2630226948765119,0.3856943865590453,0.3917973215819066,0.16224695682323045,0.18673259023644484,0.3515022187917109,0.27846503229127284,0.36511402977583207,0.45254066542156157,0.39449432308706456,0.297364172272211,0.45986757441705794,0.5402875754997646,0.2814530668264972,0.46604028802271624,0.3252601807873639,0.4829058799583731,0.452843834855964,0.5106165756917006,0.4020880729913564,0.47517647428124155,0.42327142784170835,0.3898269432774959,0.3617338728697772,0.495942478153527,0.23861226656037518,0.5036934545219968,0.5256515768859013,0.30327087864632546,0.401082693202808,0.37085464403098284,0.4881569912542449,0.23594760590858632,0.4649378292641453,0.2609301385194324,0.3224234650208662,0.3606246033863392,0.4346437064235593,0.22750722930391576],[0.5332179512963401,0.5058075469099871,0.5021742552658478,0.5393869777440958,0.37444660942897545,0.38278583357087365,0.4610854887649507,0.359850675053123,0.2651190504920725,0.21598967074476463,0.21163422647825536,0.30189469765991916,0.26789075916319344,0.16937570865428228,0.07845639510682235,0.3369154648405239,0.661822754952766,0.40132763356638196,0.5950508628630942,0.7533091501071603,0.5060860340134423,0.18966019121157865,0.41901411960357304,0.5675169585208901,0.14177809708175665,0.2442954413191965,0.04099767624622178,0.04969834391271107,0.11983570435580976,0.16756065638213968,0.2926954988674512,0.2852274736123874,0.369510176830014,0.35634981899188306,0.1757313725034186,0.35244212300309896,0,0.40757751171701045,0.13429898545513236,0.31092277116997463,0.4613776868972804,0.3406127450127673,0.2329445180393875,0.3654661851975148,0.39479594830454257,0.49980774461038774,0.5661045579701431,0.4989621647812626,0.637769717592702,0.45511827563372004,0.5169153023822464,0.6432130443775945,0.5864147756689502,0.5541471063264009,0.5432903376428583,0.6924720257211682,0.5806931796140414,0.7515483931917611,0.6907329527397064,0.6995757938291238,0.6659156508686207,0.7840195478106918,0.920745965044673,0.6673459675199864,0.7502387407640259,0.7199871606544259,0.874598112219875,0.8446943238704445,0.8481950477890323,0.7555233414015292,0.8487093033223166,0.7955005916350317,0.743232562617532,0.7019625515014987,0.8773807933586623,0.6334634434008304,0.8971706253653916,0.8626322921375573,0.6920651886765561,0.7914094215779465,0.765625551346268,0.796775380806519,0.6100561323496757,0.7187466709750574,0.649811853255006,0.6078338654539747,0.566831252541826,0.6550302301168276,0.4532949500521178],[0.3596875956724508,0.5421934599867623,0.6384932484527497,0.619825632399738,0.567414232039041,0.534756071827557,0.6487575015275963,0.6072178430643527,0.5568784818698427,0.4178082378728345,0.4580432957175039,0.5086453016085961,0.37511612544997724,0.47068659346286645,0.36043105819374355,0.3602301263320203,0.559048141448992,0.48686204475882155,0.5595101923760175,0.668772031097877,0.423423455437298,0.32787871821022574,0.23978026124919335,0.4228823755176278,0.5081115214126476,0.26974754110892835,0.3242399251059128,0.49735650809020515,0.26094734929339863,0.21236658531271735,0.18863290089460788,0.09339413723666824,0.3185390124352798,0.12792031651171343,0.37448026730868184,0.18139586391994225,0.40757751171701045,0,0.2639613864392149,0.09066603530313425,0.07571202702167243,0.030367750367597184,0.14758246495735722,0.09507527344617196,0.06132161900797715,0.24593419806417427,0.22742863905890323,0.20061494991607487,0.19602256652545735,0.12273801535741269,0.06827337020819577,0.19881987336293824,0.1744772464104841,0.23092731317982507,0.14624500901161638,0.2550909532937292,0.13376637250869752,0.36683988521457866,0.2560370988612921,0.24995296626191085,0.2578682923058829,0.33622580005972935,0.5098726334626548,0.2929057597850155,0.30173449586343193,0.3848795742430677,0.5657333732927997,0.4706452550122689,0.40310876218243386,0.3227345807727683,0.43095224759664147,0.5604153694666569,0.5533939882396743,0.5394267971224468,0.6099601044024965,0.3197952184303472,0.5289232237055904,0.6938826627582969,0.4178188730545365,0.4976490204562052,0.4258958705957522,0.677077258879683,0.39355526429280857,0.6759153017581283,0.38201079971612456,0.5314306817863826,0.5828783128067162,0.6534320625251179,0.45109410007854434],[0.36585000831028924,0.3922126989408451,0.4310521902858633,0.44578922564516843,0.3227569208372966,0.30939476254250964,0.4132307265538477,0.3398836609031956,0.26873507585184475,0.14738485437090407,0.17531962832071699,0.2507253981177005,0.1519982606682387,0.17222233285909105,0.054224429011605305,0.19790508709286,0.5148211002620755,0.2977145215562828,0.4631499196214913,0.61457993683869,0.3550983150219003,0.06643320512069661,0.24481849776653394,0.4068205537145168,0.20211946283496882,0.08237495066381237,0.06603374701051623,0.2099266061946546,0.09853485177233463,0.10694263164103816,0.24284865924582932,0.17295538310304517,0.21224360396796432,0.27487762410118605,0.2513469908918564,0.17582708517182843,0.13429898545513236,0.2639613864392149,0,0.14626576349138015,0.3460267590746525,0.20977138276432225,0.07424434249225931,0.19427538356358945,0.28487273031510657,0.32363781710722667,0.4778301028279637,0.4202288485309844,0.4781436174553769,0.28190815398677,0.3742046623613953,0.5051828166512674,0.46813837144320547,0.377717509414538,0.37378777670990565,0.5294689608275576,0.42634159482117445,0.5765570765013058,0.5610213110115071,0.5475800344245886,0.4950713908419306,0.627413091257089,0.7477169997153005,0.4922934151049684,0.6061636776998333,0.5432836521920341,0.6994579257761273,0.6684925552547218,0.6880236676354259,0.5896197046673943,0.677499818219877,0.6271012429485794,0.5807602065060274,0.543319307047993,0.7060543655287658,0.45681795970023825,0.7206305972320765,0.7070198404987974,0.5177570821866885,0.6167195630036308,0.5889275109929003,0.6504639449873937,0.439814077225007,0.5906287420522647,0.47538069457390836,0.4649712723004465,0.4501933872518747,0.5372580009301572,0.32112338586299466],[0.2849684292813676,0.4251936912084526,0.5115368518308935,0.49901821625136966,0.43523499877269656,0.40413661786319727,0.5179160853947302,0.4741472132172984,0.42516019455988147,0.2852523709284391,0.3262466353810866,0.3756191199256124,0.2426346717798697,0.34215077734162497,0.24172199159729493,0.23405738523004432,0.4745967809064967,0.36053796493994394,0.45760755865979214,0.5837444986007739,0.3247744020827403,0.19604035686727586,0.1507775527985271,0.3431913412369314,0.3848795742430678,0.13680728224032293,0.22953420495181456,0.39479594830454257,0.19366247324871824,0.15595768427606369,0.21096415024252682,0.08980998046266156,0.20115142894046684,0.18958565814611775,0.34031957289529335,0.07342468279703415,0.31092277116997463,0.09066603530313425,0.14626576349138015,0,0.19897673199912683,0.0709761976514619,0.035746559007479736,0.019431024691591,0.1563258108007413,0.19510112791145792,0.3485888451878808,0.30819343476188343,0.28947054848728654,0.108464235016689,0.19454544318552616,0.3256398310918901,0.30731002492654835,0.22072840070883998,0.1902598035342449,0.34135149772176937,0.23863548825810604,0.40468797705576914,0.3865502515181564,0.3600736865634774,0.3132056853374747,0.43881428351766494,0.5692601356501787,0.321574593882806,0.4216317002846537,0.3903671280768277,0.5621169524766771,0.5027725075809604,0.4994682258061745,0.40282742646133696,0.49589398668967943,0.5225758652719805,0.4974169575205217,0.4730032191256623,0.5877169316053809,0.30956074853750565,0.558183282730534,0.6354938992033076,0.3915688073522313,0.48441684734771134,0.4354747249172186,0.6024096736386865,0.339199360445752,0.5804669106037954,0.35058663694288644,0.4382307889992687,0.4712503718618887,0.5479957943415488,0.3359542391866359],[0.4745330317587172,0.6595784334620386,0.7524524537213335,0.7364436710343742,0.6752158603163672,0.6453670214300803,0.7590019418506169,0.7102422965360542,0.652191564170851,0.5172261621594126,0.554480123409537,0.6128791404470822,0.4825659966906458,0.5598592069052175,0.43886649212648127,0.4743695202817464,0.6745061784161573,0.601099218646524,0.6774404391317171,0.783948869174478,0.5412997159593548,0.426172408833417,0.35761453767697754,0.5381450398048232,0.5883318238120276,0.3760521161460128,0.3812720876288299,0.5534597050286137,0.301339834898448,0.25200384790958535,0.1664324955209356,0.13587263683538514,0.43542282860293285,0.08588198048742726,0.37426418340569323,0.29874428190074626,0.4613776868972804,0.07571202702167243,0.3460267590746525,0.19897673199912683,0,0.09569097301454564,0.23676697368007527,0.21286814424608266,0.024382664269314222,0.357670002126537,0.10949881162190048,0.0876502114149022,0.22011261646130317,0.2330013937499421,0.07121767705392275,0.15441862325626451,0.08275093488630635,0.3299972680407031,0.22713826119505653,0.279512782848222,0.1556350122481947,0.428153555418394,0.18954064545447646,0.2392802851121117,0.3138400815018052,0.32962206443153014,0.5453524998754529,0.36602580669261975,0.26527074344541896,0.4672095174806679,0.6476703316143201,0.5312213871284316,0.4011386074206475,0.3474656102891677,0.4646007032447252,0.6603305873547639,0.6607093791017148,0.6503584457615491,0.7015065162104281,0.4136194265972261,0.5895680746009717,0.800812655853515,0.5154876785343107,0.5867218959208781,0.5039921294696226,0.789555556240944,0.5026025006573488,0.7930123605912046,0.4829481169904768,0.6485020452137225,0.7008904247502369,0.7714968178665114,0.5686522179947539],[0.38546261294106476,0.5385653050565555,0.6222238462958236,0.6119662523545404,0.5395439960976448,0.5117182504490226,0.6247386596844137,0.5727332620899684,0.514143756744716,0.37930592136931784,0.4163794711836129,0.4758247847322605,0.34735260645339405,0.42253721367714303,0.30436506839413235,0.34606119936655416,0.5805721987692246,0.47197468433670875,0.5691134154376721,0.6903042196162505,0.4349643939819413,0.2882382806484148,0.2555162144353993,0.4464758405387876,0.45367593772777115,0.24090658849209656,0.25779873720874685,0.4315391951531324,0.18973188911590752,0.14059085384506878,0.12563680287507656,0.020622590804059152,0.31450626381911667,0.08203978886180348,0.30248840564362967,0.1836992812172713,0.3406127450127673,0.030367750367597184,0.20977138276432225,0.0709761976514619,0.09569097301454564,0,0.09867369068712971,0.10716095127816108,0.04376841635332866,0.2813926089399278,0.23934051439524864,0.19523298074191417,0.2687466115613915,0.1670378456841363,0.1346089362879953,0.2604478397591715,0.21598335672357025,0.2823786785110568,0.21158155903501827,0.32786726223290336,0.20596963600994248,0.434315274036993,0.31136208583093844,0.3200257708191022,0.327719183857347,0.40748468418381323,0.5814405403973947,0.35753948529643204,0.3673020712173694,0.4441871564456086,0.6235417305737225,0.5375393903280563,0.4750856838377265,0.3954522345238048,0.5029161340844324,0.6055918924823768,0.5903709612427396,0.5710818698936677,0.6615720396886695,0.3731443894887544,0.5954597245653758,0.7303191994418328,0.4665508741861265,0.5518387660150095,0.4867849747966008,0.704825680553433,0.4300248760483654,0.6905121620155764,0.42830608585176994,0.5471971878232987,0.5844439772070036,0.6603993049356982,0.4493029695413894],[0.32903219500649433,0.42619747727853663,0.4942165236670198,0.49296731935339055,0.40306554767343555,0.3789436492145394,0.49028863915237925,0.432901115284742,0.37308549336807423,0.2387945053295418,0.2753144009188164,0.3370049173820312,0.21320154459593404,0.2825966179165594,0.1708741586836482,0.2265335136258643,0.5061693146499101,0.3475802547805161,0.47500307591509755,0.6129309256446268,0.3492534086613562,0.14781074989619095,0.1948757098328627,0.38172239343832565,0.31811930442725206,0.10946443927979028,0.15137792333507422,0.31780057903293085,0.12173122491116029,0.09170166016498384,0.1839300636540815,0.07893868149764786,0.2115404451483948,0.1887740887772096,0.2756869848257844,0.11403641389121541,0.2329445180393875,0.14758246495735722,0.07424434249225931,0.035746559007479736,0.23676697368007527,0.09867369068712971,0,0.09377803592373601,0.18054277828968107,0.256006483769163,0.37711126261057615,0.32613952070734936,0.3647487473048848,0.18436214769237544,0.25760737754477714,0.3887082146875186,0.35577004298643833,0.2926760235902894,0.2684150515792831,0.4180145165527452,0.31092646516554767,0.4815599703131689,0.44542214537007496,0.4318530376686316,0.39134318186617245,0.5130562918252488,0.6472522061403435,0.3980172242030312,0.4895647268283519,0.4623069293086765,0.6300424353941646,0.5785003564555664,0.5751954671012884,0.48033295502787204,0.5740468503003635,0.5791264667996929,0.5459517704958229,0.5163105848224774,0.6495119865087963,0.37917204079468747,0.6332413241283119,0.680768537547241,0.45471673322041634,0.5503367171195372,0.5077794991781303,0.6384908523370482,0.3922359723590688,0.6014130182797677,0.412814457115801,0.46384586069585343,0.47803578973301525,0.5601273337646304,0.3421134410382417],[0.2359851153223529,0.40474708911797663,0.5039855603771698,0.4827847402205993,0.4410123152471382,0.40479962661385566,0.518640056978814,0.486973005792777,0.4482799508814794,0.3066123452191372,0.3502452364013637,0.387978723553914,0.2520359873780833,0.3735250497313817,0.2860600096755884,0.22663540997221113,0.4313305400844103,0.35244625496008325,0.42441147648541283,0.5411454066890647,0.28886927010371355,0.2226619715335475,0.10679399181681098,0.2969230825965449,0.4227329771364711,0.15298102610287678,0.2858284644189892,0.4462107933063485,0.25502513697958373,0.21779546291105384,0.2640763914239525,0.14268292463101317,0.1815241293213281,0.23149972747239225,0.40204402507255516,0.04419145338446987,0.3654661851975148,0.09507527344617196,0.19427538356358945,0.019431024691591,0.21286814424608266,0.10716095127816108,0.09377803592373601,0,0.18448298377006198,0.1370474562457397,0.36475515859348867,0.3337217796425151,0.24843560700271045,0.0481982280993886,0.17941591822954855,0.30577272192853455,0.30580270986858693,0.15889681474102627,0.13713471259220925,0.29575850464988607,0.20556993994513048,0.3455190404669155,0.3710346283042801,0.32561500612874866,0.2586193304644945,0.3986124901129737,0.5128776808415053,0.26185812721026336,0.39294109161396285,0.3285715864915155,0.5004837410513446,0.44237319969005406,0.45546444415743204,0.3537621496701932,0.44128695718460953,0.4646393168241659,0.44357788511291113,0.42230626120188086,0.5276035376051197,0.2478111516525683,0.4973444173917422,0.5828616135207075,0.33131624540649657,0.423212565123635,0.37372818752420783,0.5553012089917512,0.2839141970793758,0.5434440819555575,0.29078934573911475,0.3994551492199143,0.44565753643185485,0.517512373698552,0.3136137721434988],[0.4589546377223882,0.6236637247909081,0.7083931495244377,0.6977321812538583,0.6245253769385304,0.5974990946953338,0.7102908513205493,0.655853644571005,0.5938498827550068,0.4616399377624421,0.49711766662746787,0.5597204924355339,0.4327445660700541,0.4994375141493418,0.3758906726683316,0.4321426071217201,0.6569108290284872,0.5581381869019992,0.65072997661463,0.7667881314165143,0.5155724799104517,0.37073224152994344,0.3335447626751306,0.5214062837288765,0.5251182678697831,0.326482885822145,0.31509089323012207,0.4868959519871228,0.23455147387130038,0.18525825575867136,0.10798767564624875,0.07116022852937323,0.39925128451708947,0.03219211971367968,0.31270249813864215,0.2660545361261604,0.39479594830454257,0.06132161900797715,0.28487273031510657,0.1563258108007413,0.024382664269314222,0.04376841635332866,0.18054277828968107,0.18448298377006198,0,0.3480376604067109,0.1543124948529725,0.10947303309457544,0.2643147828158146,0.22601737369850702,0.11411148203172948,0.21747925642757568,0.14921051083518724,0.3343770585338751,0.2438899851629825,0.32483393784644776,0.1984083108228726,0.458384184513862,0.2560370988612921,0.2957353458772768,0.3457746639622372,0.38611491818462534,0.5886028484645283,0.38912580934604046,0.32831114247488513,0.48495914186173383,0.666153316451767,0.5624040406461238,0.4569016157134082,0.3936031633251923,0.508168419405906,0.6641370763647385,0.6564099864738407,0.6411463257960882,0.7127988684752503,0.42264036813647726,0.6209436806923831,0.7968889127201968,0.5213547733568512,0.5998521400176466,0.5247041481306485,0.7776714763306475,0.4962890649402269,0.7703365569514423,0.48573076410075416,0.6262975641725568,0.6685054071283494,0.743033177036595,0.5339210029332175],[0.07880954158818002,0.31995824136611273,0.44885150967423476,0.4037828053818,0.42987359163074995,0.38259854166710155,0.48654876251884505,0.49221834878848314,0.48598586850466724,0.3548355486035235,0.39983382198538164,0.40106871354682927,0.27876691544400417,0.4407719599105018,0.3963225328395035,0.21403760256585588,0.27759438473163517,0.3112596893948171,0.29957826161421713,0.38582927591774735,0.1698866142756883,0.29867253904100666,0.04538889986447316,0.1422893746987035,0.5041808078693631,0.2247696847540037,0.42941391472749,0.5671225443209503,0.4195766818855227,0.38885351086658404,0.44320174195241224,0.3220512080453022,0.14961196700489166,0.4049798125259669,0.5736973988851014,0.10611009022917642,0.49980774461038774,0.24593419806417427,0.32363781710722667,0.19510112791145792,0.357670002126537,0.2813926089399278,0.256006483769163,0.1370474562457397,0.3480376604067109,0,0.5026887079774792,0.4868959519871227,0.26061587018876314,0.0822598404264244,0.28073086481219256,0.374380068414112,0.41608563978503393,0.04099767624622178,0.13392928602960658,0.2794032943495124,0.25561258099338735,0.23763055569342167,0.44367456059377647,0.3479641103021828,0.20115142894046684,0.39091266373227374,0.41520515274806263,0.15986703483553144,0.4262385587750363,0.1808411444228541,0.3344324795657692,0.314396539161236,0.4268008044610957,0.31201819553745114,0.35964864155849025,0.28529917276182426,0.26680679639680627,0.2510980670565801,0.351382915795953,0.09354782679172184,0.3617597087123031,0.4070667230423334,0.1563258108007413,0.25299081328188144,0.22583740242377406,0.38950976072027,0.1063735013305243,0.4021967058662934,0.11441139525326637,0.2598784283313345,0.3418103737090002,0.39515404463161036,0.2349905784708159],[0.6217322204546084,0.8114450261499933,0.9025220094857509,0.8880303775293156,0.8211243863247525,0.7933657658667194,0.9064821294612002,0.8523493200718515,0.7884696064713466,0.6579384632766351,0.6925825789591894,0.7564196355733285,0.6290892243356854,0.6921829103298307,0.5651068877214039,0.6249029778604619,0.8218405314487,0.7515011286530738,0.8283207916358327,0.9307280699402978,0.6921331585744807,0.567168046087565,0.5085262678242599,0.6855809035307928,0.712752203343177,0.5226567156090639,0.49253746037896856,0.6570148733810453,0.4042966186128995,0.3593238770515784,0.23482937957560748,0.26253942553553034,0.5871885147031268,0.16803255640564843,0.4307426440533129,0.45063832399491055,0.5661045579701431,0.22742863905890323,0.4778301028279637,0.3485888451878808,0.10949881162190048,0.23934051439524864,0.37711126261057615,0.36475515859348867,0.1543124948529725,0.5026887079774792,0,0.02853326246201381,0.30380285493830633,0.37872598137266794,0.18677815443308246,0.18177461798394398,0.07619721934539173,0.4652335950484019,0.35436788725598806,0.35399599504220847,0.25196837959631635,0.5258996707136916,0.1688064146792219,0.2831774105268468,0.4141457551102531,0.3631524001423999,0.6101421453857907,0.47804331332229205,0.2708369529847435,0.5836126403886698,0.7593630126653598,0.6237239787506078,0.43224092424871435,0.41421150351739305,0.5316694574511873,0.7907078513721459,0.7989329701177459,0.7925622846699182,0.8225466524707933,0.5421415485201924,0.6801456020791807,0.9378212088934934,0.6454633245579401,0.7069275293755589,0.6151751687459837,0.9330158906673645,0.6437839147389133,0.9424016530278311,0.6165710303883556,0.7979845617582549,0.852715022921539,0.922703515337816,0.7205523357401497],[0.6024926587259923,0.7755092650973818,0.8590938854053753,0.8495529331711132,0.7716062591455288,0.7466098595939868,0.8586377064765502,0.799080723069274,0.7313594064855395,0.604390809892607,0.6370194826256992,0.7047475104736485,0.5811606467132098,0.6333190741789192,0.5042339365508627,0.5836527740887514,0.8020442638880177,0.7093365224032165,0.8005328282905276,0.911730338592193,0.6648336331528344,0.5144274506644751,0.4816795253168626,0.6658239717076455,0.6503885900368319,0.4755999526171573,0.42734292801191154,0.5892871331214341,0.3379386094011206,0.29457150478994576,0.1655305814067321,0.20705503438483014,0.5510409322506495,0.10433303952888892,0.3598044353782894,0.4170610329139239,0.4989621647812626,0.20061494991607487,0.4202288485309844,0.30819343476188343,0.0876502114149022,0.19523298074191417,0.32613952070734936,0.3337217796425151,0.10947303309457544,0.4868959519871227,0.02853326246201381,0,0.32741226146676644,0.36232768000187243,0.1909320012636246,0.22276412503994147,0.11708523830686662,0.4597948084722109,0.3548281557849777,0.3826714725051487,0.2683100538382307,0.5453636030321088,0.22457420664973737,0.3224234650208662,0.4313629117437127,0.40779790039903874,0.6455373217419275,0.48918920412311123,0.32255223473963707,0.5925063434064195,0.7717437414376238,0.646449300112421,0.47868492614440156,0.44706750560288533,0.5655723846626798,0.7897610481388095,0.7907579831211776,0.7799871225799538,0.8288134449348699,0.5423737188544766,0.7040986888659544,0.9308725782888736,0.6447115172808556,0.7135934614800324,0.627461804441238,0.9187925754771064,0.63248363783502,0.9184666244706335,0.6127093160362924,0.7740618122656794,0.8199366789384789,0.8935156153227244,0.6856382741209093],[0.3746273907889154,0.6223573721158385,0.7469786654711085,0.7060896778327247,0.7100896753884323,0.6673703333818967,0.7773741969973452,0.7641644071799277,0.7352462173691846,0.593917574969514,0.6384970822203337,0.6665699600036411,0.5317245891438565,0.6641467747096972,0.5732126040226061,0.4877392349379277,0.5591414479270591,0.6024203003741153,0.5985934723547829,0.6594333920818474,0.4726137202880867,0.5128782684718171,0.31787304138156613,0.43339788623842945,0.7132135429877428,0.44081180234640127,0.5546326258448131,0.7246721771764568,0.49812009157091774,0.45022253230949805,0.41344480312577025,0.3317071941969454,0.4281091736441773,0.3385763582763104,0.6105260653451332,0.3118708610000211,0.637769717592702,0.19602256652545735,0.4781436174553769,0.28947054848728654,0.22011261646130317,0.2687466115613915,0.3647487473048848,0.24843560700271045,0.2643147828158146,0.26061587018876314,0.30380285493830633,0.32741226146676644,0,0.18161736712351984,0.10850748397483868,0.09771755935455939,0.18700583967383608,0.18684079041668766,0.0884505879772857,0.018151421954395272,0.02349743628566287,0.17998006199263597,0.15947304119825936,0.0450463132662501,0.07175628016127153,0.10778793881158674,0.28304910347014983,0.1435693147605183,0.12324305558149418,0.24891987131830384,0.41695875657045933,0.27787875091796643,0.1681131702024359,0.08694581958444858,0.20232754332806635,0.470278787103079,0.4974991578843765,0.5053925291084753,0.4873199172083677,0.23157595902157718,0.33491706636742175,0.6283866828063656,0.33028455159731035,0.37298103037981206,0.27443303624643506,0.6451748492752934,0.3625565792901312,0.68948033