"trial_id","rt","stimulus","response","trial_type","trial_index","plugin_version","time_elapsed","language","participant_number","success","raw_payload","placements","dissimilarity_vector","n_words","trial_category","distance_matrix","value"
"consent_form","2048","
    <div style=""max-width:800px; margin:0 auto; text-align:left; font-size: 16px; padding: 10px 0;"">
      <h1>Informed Consent Form</h1>
      <p>You are being invited to participate in a research study titled <strong>""Reproducibility of Psychological Science and Instruction.""</strong> This study is being done by Dr. Bria Long from UC San Diego and associated graduate students in the Experimental Methods course. You were selected to participate in this study because you are an adult in the U.S. and have been a represented population in previous psychology studies.</p>
      
      <p>The purpose of this study is to better understand how well previously published studies in the psychological field replicate online and with different populations. Your participation in this research should last approximately <strong>5-30 minutes</strong>. If you agree to take part in this study, you may be asked to view a set of stimuli, including pictures, sounds, written text, or videos and then giving some responses via key-presses, verbally, or with paper-and-pencil. We may also observe your choices or preferences among an array of stimuli. These stimuli will be taken directly from or closely adapted from studies that already exist in the published psychological literature. Stimuli will include, e.g., pictures of objects and human faces, audio and video clips, short text passages, etc. None of the stimuli will be disturbing, threatening, or offensive. The online and in-person experiments described in this protocol will take no more than 30 minutes. An example game you might play would be to click on an image on the screen that matches a word you hear being said out loud. Your total expected time commitment for this study is between 5-30 minutes, and is specified in the study description.</p>
      
      <p>Your participation in this study is completely voluntary and you can withdraw at any time. Choosing not to participate or withdrawing will result in no penalty or loss of benefits to which you are entitled. You are free to skip any question that you choose.</p>
      
      <p>We will not be asking for any personally identifying information, and we will handle responses as confidentially as possible. Your SONA or Prolific IDs will never be tied to your responses on this survey. However, we cannot guarantee the confidentiality of information transmitted over the Internet. To minimize this risk, data containing anything that might be personally identifying (e.g. Prolific IDs or IP addresses) will be encrypted on transfer and storage and will only be accessible to qualified lab personnel. We will be keeping data collected as part of this experiment indefinitely. This anonymized data (containing neither Prolific IDs nor IP addresses) may be shared with the scientific community or with other participants to be used as stimuli in future studies.</p>
      
      <p>If you have questions about this project or if you have a research-related problem, you may contact the researcher(s), <strong>Dr. Bria Long, <a href=""mailto:brlong@ucsd.edu"">brlong@ucsd.edu</a></strong>. If you have any questions concerning your rights as a research subject, you may contact the UC San Diego Office of IRB Administration at <a href=""mailto:irb@ucsd.edu"">irb@ucsd.edu</a> or 858-246-4777.</p>
      
      <h3 style=""margin-top: 25px;"">Consent Statement</h3>
      <p style=""font-weight: bold;"">By participating in this research you are indicating that you are at least 18 years old, have read this consent form, and agree to participate in this research study. Please keep this consent form for your records.</p>
    </div>
  ","0","html-button-response","0","2.1.0","2049","en","7fp4v56txz_5pcnrs","","","","","","","",""
"","1754","
    <div style=""display:flex; align-items:center; justify-content:center; height:100vh; font-family:sans-serif;"">
      <div style=""max-width:900px; margin:0 auto; text-align:center;"">
        <h1 style= ""font-size: 24px;"">Welcome! Thank you for participating in the study.</h1>
        <p style=""font-size:18px; line-height:1.6;"">
          In this task, you will be presented with <strong>90 words</strong> arranged <strong>outside a circle</strong>.<br>
          Your job is to <strong>drag these words into the circle</strong> and <strong>rearrange them</strong> based on their <strong>meaning similarity</strong>.<br><br>
          Words that are <strong>similar in meaning</strong> should be placed <strong>closer together</strong>.<br>
          Words that are <strong>different in meaning</strong> should be placed <strong>farther apart</strong>.<br><br>
          You can place the words <strong>anywhere inside the circle</strong>. There is no single correct answer — 
          we are interested in <strong>your personal judgment</strong> of how these words relate to each other.<br><br>
          <strong>You must move all words into the circle before you can finish.</strong><br>
          After the initial arrangement, you will arrange words from specific categories.
        </p>
        <p style=""font-size:16px; margin-top:30px;""><em>Press any key to continue.</em></p>
      </div>
    </div>
  "," ","html-keyboard-response","1","2.1.0","3805","en","7fp4v56txz_5pcnrs","","","","","","","",""
"","1233","<p style='font-size:20px;'>Which is your first language or primary language of use?</p>","1","html-button-response","2","2.1.0","5040","en","7fp4v56txz_5pcnrs","","","","","","","",""
"","994","","","fullscreen","3","2.1.0","7037","en","7fp4v56txz_5pcnrs","true","{""placements"":[{""word"":""proud"",""x"":489.6,""y"":156.2,""cx"":512.5,""cy"":173.6,""angle_rad"":-0.826,""angle_deg"":312.7},{""word"":""refrigerator"",""x"":81.3,""y"":325.2,""cx"":120.5,""cy"":342.6,""angle_rad"":-3.109,""angle_deg"":181.8},{""word"":""rabbit"",""x"":154,""y"":197.2,""cx"":176.5,""cy"":214.6,""angle_rad"":-2.479,""angle_deg"":218},{""word"":""agreement"",""x"":486,""y"":125.2,""cx"":524.5,""cy"":142.6,""angle_rad"":-0.871,""angle_deg"":310.1},{""word"":""lips"",""x"":544,""y"":308.2,""cx"":559.5,""cy"":325.6,""angle_rad"":-0.116,""angle_deg"":353.4},{""word"":""scissors"",""x"":559.2,""y"":482.2,""cx"":589.5,""cy"":499.6,""angle_rad"":0.558,""angle_deg"":32},{""word"":""giraffe"",""x"":113.2,""y"":204.2,""cx"":137.5,""cy"":221.6,""angle_rad"":-2.598,""angle_deg"":211.1},{""word"":""system"",""x"":42.3,""y"":487.2,""cx"":69.5,""cy"":504.6,""angle_rad"":2.638,""angle_deg"":151.1},{""word"":""fault"",""x"":453.3,""y"":129.2,""cx"":471.5,""cy"":146.6,""angle_rad"":-1.032,""angle_deg"":300.9},{""word"":""friendship"",""x"":238.2,""y"":596.2,""cx"":273.5,""cy"":613.6,""angle_rad"":1.853,""angle_deg"":106.2},{""word"":""method"",""x"":437.2,""y"":583.2,""cx"":465.5,""cy"":600.6,""angle_rad"":1.139,""angle_deg"":65.3},{""word"":""ant"",""x"":145.8,""y"":234.2,""cx"":160.5,""cy"":251.6,""angle_rad"":-2.663,""angle_deg"":207.4},{""word"":""depressed"",""x"":524.8,""y"":173.2,""cx"":562.5,""cy"":190.6,""angle_rad"":-0.644,""angle_deg"":323.1},{""word"":""sofa"",""x"":164.3,""y"":335.2,""cx"":182.5,""cy"":352.6,""angle_rad"":3.126,""angle_deg"":179.1},{""word"":""violence"",""x"":325.8,""y"":461.2,""cx"":356.5,""cy"":478.6,""angle_rad"":1.52,""angle_deg"":87.1},{""word"":""chopsticks"",""x"":539.8,""y"":491.2,""cx"":577.5,""cy"":508.6,""angle_rad"":0.609,""angle_deg"":34.9},{""word"":""concept"",""x"":455,""y"":565.2,""cx"":484.5,""cy"":582.6,""angle_rad"":1.047,""angle_deg"":60},{""word"":""sparrow"",""x"":131.6,""y"":230.2,""cx"":161.5,""cy"":247.6,""angle_rad"":-2.644,""angle_deg"":208.5},{""word"":""chair"",""x"":151.3,""y"":320.2,""cx"":171.5,""cy"":337.6,""angle_rad"":-3.072,""angle_deg"":184},{""word"":""business"",""x"":432.9,""y"":558.2,""cx"":465.5,""cy"":575.6,""angle_rad"":1.098,""angle_deg"":62.9},{""word"":""magic power"",""x"":336.8,""y"":324.2,""cx"":381.5,""cy"":341.6,""angle_rad"":-0.26,""angle_deg"":345.1},{""word"":""result"",""x"":406.4,""y"":549.2,""cx"":428.5,""cy"":566.6,""angle_rad"":1.223,""angle_deg"":70.1},{""word"":""hostility"",""x"":505.2,""y"":192.2,""cx"":533.5,""cy"":209.6,""angle_rad"":-0.653,""angle_deg"":322.6},{""word"":""dispute"",""x"":372.9,""y"":569.2,""cx"":400.5,""cy"":586.6,""angle_rad"":1.36,""angle_deg"":77.9},{""word"":""relationship"",""x"":262.7,""y"":551.2,""cx"":303.5,""cy"":568.6,""angle_rad"":1.78,""angle_deg"":102},{""word"":""pencil"",""x"":536.2,""y"":489.2,""cx"":559.5,""cy"":506.6,""angle_rad"":0.642,""angle_deg"":36.8},{""word"":""anger"",""x"":491.6,""y"":109.2,""cx"":514.5,""cy"":126.6,""angle_rad"":-0.936,""angle_deg"":306.4},{""word"":""team"",""x"":445.9,""y"":574.2,""cx"":466.5,""cy"":591.6,""angle_rad"":1.121,""angle_deg"":64.3},{""word"":""washing machine"",""x"":107.4,""y"":380.2,""cx"":166.5,""cy"":397.6,""angle_rad"":2.888,""angle_deg"":165.5},{""word"":""thigh"",""x"":469.3,""y"":375.2,""cx"":489.5,""cy"":392.6,""angle_rad"":0.296,""angle_deg"":17},{""word"":""charity"",""x"":-8.1,""y"":433.2,""cx"":17.5,""cy"":450.6,""angle_rad"":2.848,""angle_deg"":163.2},{""word"":""finger"",""x"":503,""y"":353.2,""cx"":525.5,""cy"":370.6,""angle_rad"":0.117,""angle_deg"":6.7},{""word"":""characteristic"",""x"":224.3,""y"":573.2,""cx"":270.5,""cy"":590.6,""angle_rad"":1.89,""angle_deg"":108.3},{""word"":""cat"",""x"":162.2,""y"":225.2,""cx"":176.5,""cy"":242.6,""angle_rad"":-2.587,""angle_deg"":211.8},{""word"":""eye"",""x"":526.2,""y"":331.2,""cx"":542.5,""cy"":348.6,""angle_rad"":-0.007,""angle_deg"":359.6},{""word"":""bed"",""x"":74.8,""y"":370.2,""cx"":91.5,""cy"":387.6,""angle_rad"":2.997,""angle_deg"":171.7},{""word"":""computer mouse"",""x"":40.4,""y"":358.2,""cx"":97.5,""cy"":375.6,""angle_rad"":3.041,""angle_deg"":174.2},{""word"":""microwave"",""x"":110.1,""y"":399.2,""cx"":148.5,""cy"":416.6,""angle_rad"":2.822,""angle_deg"":161.7},{""word"":""reason"",""x"":467.1,""y"":150.2,""cx"":493.5,""cy"":167.6,""angle_rad"":-0.904,""angle_deg"":308.2},{""word"":""hammer"",""x"":558.8,""y"":530.2,""cx"":589.5,""cy"":547.6,""angle_rad"":0.69,""angle_deg"":39.5},{""word"":""spoon"",""x"":604.4,""y"":491.2,""cx"":628.5,""cy"":508.6,""angle_rad"":0.518,""angle_deg"":29.7},{""word"":""fate"",""x"":352.8,""y"":270.2,""cx"":369.5,""cy"":287.6,""angle_rad"":-1.268,""angle_deg"":287.4},{""word"":""arm"",""x"":492.4,""y"":315.2,""cx"":509.5,""cy"":332.6,""angle_rad"":-0.109,""angle_deg"":353.8},{""word"":""rat"",""x"":118.3,""y"":234.2,""cx"":131.5,""cy"":251.6,""angle_rad"":-2.718,""angle_deg"":204.2},{""word"":""excited"",""x"":480.3,""y"":196.2,""cx"":507.5,""cy"":213.6,""angle_rad"":-0.714,""angle_deg"":319.1},{""word"":""ear"",""x"":524.4,""y"":311.2,""cx"":539.5,""cy"":328.6,""angle_rad"":-0.112,""angle_deg"":353.6},{""word"":""society"",""x"":288.7,""y"":440.2,""cx"":315.5,""cy"":457.6,""angle_rad"":1.881,""angle_deg"":107.8},{""word"":""toothbrush"",""x"":107.4,""y"":345.2,""cx"":145.5,""cy"":362.6,""angle_rad"":3.08,""angle_deg"":176.5},{""word"":""process"",""x"":445,""y"":596.2,""cx"":474.5,""cy"":613.6,""angle_rad"":1.13,""angle_deg"":64.7},{""word"":""splendor"",""x"":477.7,""y"":148.2,""cx"":509.5,""cy"":165.6,""angle_rad"":-0.858,""angle_deg"":310.9},{""word"":""air conditioner"",""x"":61.5,""y"":320.2,""cx"":110.5,""cy"":337.6,""angle_rad"":-3.09,""angle_deg"":183},{""word"":""tortoise"",""x"":138.6,""y"":181.2,""cx"":166.5,""cy"":198.6,""angle_rad"":-2.452,""angle_deg"":219.5},{""word"":""status"",""x"":386.8,""y"":593.2,""cx"":410.5,""cy"":610.6,""angle_rad"":1.343,""angle_deg"":76.9},{""word"":""trauma"",""x"":341.7,""y"":421.2,""cx"":368.5,""cy"":438.6,""angle_rad"":1.365,""angle_deg"":78.2},{""word"":""death"",""x"":318,""y"":482.2,""cx"":340.5,""cy"":499.6,""angle_rad"":1.634,""angle_deg"":93.6},{""word"":""happy"",""x"":462.4,""y"":148.2,""cx"":486.5,""cy"":165.6,""angle_rad"":-0.934,""angle_deg"":306.5},{""word"":""identity"",""x"":115.3,""y"":60.2,""cx"":142.5,""cy"":77.6,""angle_rad"":-2.222,""angle_deg"":232.7},{""word"":""marriage"",""x"":242.9,""y"":539.2,""cx"":275.5,""cy"":556.6,""angle_rad"":1.917,""angle_deg"":109.8},{""word"":""error"",""x"":338.7,""y"":433.2,""cx"":358.5,""cy"":450.6,""angle_rad"":1.486,""angle_deg"":85.2},{""word"":""ankle"",""x"":554.8,""y"":340.2,""cx"":576.5,""cy"":357.6,""angle_rad"":0.034,""angle_deg"":1.9},{""word"":""tiger"",""x"":149.9,""y"":222.2,""cx"":168.5,""cy"":239.6,""angle_rad"":-2.595,""angle_deg"":211.3},{""word"":""apathy"",""x"":499.5,""y"":107.2,""cx"":525.5,""cy"":124.6,""angle_rad"":-0.909,""angle_deg"":307.9},{""word"":""disease"",""x"":370.4,""y"":482.2,""cx"":399.5,""cy"":499.6,""angle_rad"":1.251,""angle_deg"":71.7},{""word"":""broom"",""x"":564.7,""y"":511.2,""cx"":589.5,""cy"":528.6,""angle_rad"":0.641,""angle_deg"":36.7},{""word"":""sad"",""x"":539.2,""y"":136.2,""cx"":555.5,""cy"":153.6,""angle_rad"":-0.763,""angle_deg"":316.3},{""word"":""key"",""x"":99.6,""y"":368.2,""cx"":115.5,""cy"":385.6,""angle_rad"":2.991,""angle_deg"":171.4},{""word"":""heaven"",""x"":311.5,""y"":236.2,""cx"":339.5,""cy"":253.6,""angle_rad"":-1.679,""angle_deg"":263.8},{""word"":""obligation"",""x"":480.5,""y"":87.2,""cx"":515.5,""cy"":104.6,""angle_rad"":-0.977,""angle_deg"":304},{""word"":""data"",""x"":459.9,""y"":613.2,""cx"":478.5,""cy"":630.6,""angle_rad"":1.141,""angle_deg"":65.4},{""word"":""loving heart"",""x"":247.3,""y"":576.2,""cx"":288.5,""cy"":593.6,""angle_rad"":1.818,""angle_deg"":104.2},{""word"":""content"",""x"":404.5,""y"":612.2,""cx"":432.5,""cy"":629.6,""angle_rad"":1.284,""angle_deg"":73.6},{""word"":""phenomenon"",""x"":281.6,""y"":247.2,""cx"":327.5,""cy"":264.6,""angle_rad"":-1.828,""angle_deg"":255.2},{""word"":""cabinet"",""x"":93.9,""y"":359.2,""cx"":121.5,""cy"":376.6,""angle_rad"":3.026,""angle_deg"":173.4},{""word"":""miracle"",""x"":306.9,""y"":280.2,""cx"":334.5,""cy"":297.6,""angle_rad"":-1.858,""angle_deg"":253.5},{""word"":""fear"",""x"":472.4,""y"":193.2,""cx"":489.5,""cy"":210.6,""angle_rad"":-0.785,""angle_deg"":315},{""word"":""knee"",""x"":564.3,""y"":361.2,""cx"":584.5,""cy"":378.6,""angle_rad"":0.121,""angle_deg"":7},{""word"":""comfortable"",""x"":440.9,""y"":120.2,""cx"":482.5,""cy"":137.6,""angle_rad"":-1.013,""angle_deg"":302},{""word"":""debt"",""x"":355.9,""y"":473.2,""cx"":374.5,""cy"":490.6,""angle_rad"":1.398,""angle_deg"":80.1},{""word"":""elephant"",""x"":153.6,""y"":178.2,""cx"":185.5,""cy"":195.6,""angle_rad"":-2.388,""angle_deg"":223.2},{""word"":""effect"",""x"":131.5,""y"":552.2,""cx"":153.5,""cy"":569.6,""angle_rad"":2.301,""angle_deg"":131.8},{""word"":""discipline"",""x"":509.7,""y"":137.2,""cx"":543.5,""cy"":154.6,""angle_rad"":-0.79,""angle_deg"":314.7},{""word"":""television"",""x"":89.3,""y"":311.2,""cx"":123.5,""cy"":328.6,""angle_rad"":-3.047,""angle_deg"":185.4},{""word"":""shoulder"",""x"":497.7,""y"":328.2,""cx"":529.5,""cy"":345.6,""angle_rad"":-0.024,""angle_deg"":358.6},{""word"":""nose"",""x"":557.3,""y"":327.2,""cx"":577.5,""cy"":344.6,""angle_rad"":-0.024,""angle_deg"":358.6},{""word"":""ax"",""x"":592.1,""y"":478.2,""cx"":604.5,""cy"":495.6,""angle_rad"":0.52,""angle_deg"":29.8},{""word"":""scenery"",""x"":307,""y"":81.2,""cx"":336.5,""cy"":98.6,""angle_rad"":-1.624,""angle_deg"":266.9},{""word"":""panda"",""x"":131,""y"":229.2,""cx"":155.5,""cy"":246.6,""angle_rad"":-2.653,""angle_deg"":208},{""word"":""fraud"",""x"":350.6,""y"":442.2,""cx"":371.5,""cy"":459.6,""angle_rad"":1.377,""angle_deg"":78.9},{""word"":""table"",""x"":110.3,""y"":343.2,""cx"":130.5,""cy"":360.6,""angle_rad"":3.093,""angle_deg"":177.2}],""n_words"":89,""words"":[""proud"",""refrigerator"",""rabbit"",""agreement"",""lips"",""scissors"",""giraffe"",""system"",""fault"",""friendship"",""method"",""ant"",""depressed"",""sofa"",""violence"",""chopsticks"",""concept"",""sparrow"",""chair"",""business"",""magic power"",""result"",""hostility"",""dispute"",""relationship"",""pencil"",""anger"",""team"",""washing machine"",""thigh"",""charity"",""finger"",""characteristic"",""cat"",""eye"",""bed"",""computer mouse"",""microwave"",""reason"",""hammer"",""spoon"",""fate"",""arm"",""rat"",""excited"",""ear"",""society"",""toothbrush"",""process"",""splendor"",""air conditioner"",""tortoise"",""status"",""trauma"",""death"",""happy"",""identity"",""marriage"",""error"",""ankle"",""tiger"",""apathy"",""disease"",""broom"",""sad"",""key"",""heaven"",""obligation"",""data"",""loving heart"",""content"",""phenomenon"",""cabinet"",""miracle"",""fear"",""knee"",""comfortable"",""debt"",""elephant"",""effect"",""discipline"",""television"",""shoulder"",""nose"",""ax"",""scenery"",""panda"",""fraud"",""table""],""distance_matrix"":[[0,0.6549680967399695,0.5180330654235483,0.04511275169151008,0.24010429044897696,0.512576333366073,0.5793340463663875,0.8503680960355225,0.06966924388237931,0.769370824696007,0.659152189743898,0.5521889742124451,0.0754313952831327,0.5752463786083996,0.5243660348974494,0.5223020665764032,0.6287528202593655,0.5493650596833054,0.5798419771501696,0.620666904154713,0.3236680065075927,0.616233872975117,0.05818219654451725,0.6565775640450503,0.6859639737047906,0.5146373671952443,0.06649442305874187,0.6451228256838534,0.6321957305481732,0.33477156897615135,0.8724186558352051,0.29948508291841613,0.7405747584874661,0.5250349292510089,0.2686920241400315,0.725289720409804,0.7086855921416796,0.6716699148262598,0.02448141796817933,0.5851976094254957,0.5428571287382056,0.2769449608906056,0.23999228065185302,0.5961326053667921,0.05606580637346361,0.23736738945962707,0.5291024703834687,0.633168508974551,0.6778350121849547,0.006849230788466143,0.6662587649106699,0.5310621772026032,0.6888475926600776,0.46087245963061996,0.5646660304850047,0.035757240922200555,0.5858281950666808,0.6914063474818752,0.4846279210595523,0.29543256030450543,0.5362866368750175,0.07215339302221398,0.5281603368579394,0.5563972122528371,0.0670848382828626,0.6908815782040125,0.28890844142679684,0.10061378670775513,0.7035921283903747,0.7310717564181782,0.7108758382392537,0.31302794765228853,0.6761596241574178,0.3297034226203854,0.06110834623785862,0.3302350633553708,0.06621394688456647,0.5292548504221697,0.5013735744617184,0.8217147068330147,0.049943077584913904,0.6423649046559399,0.26138755702202054,0.2770338987834163,0.5124445000384361,0.29001184109278255,0.5581516615147205,0.4876300008235265,0.6525465248744198],[0.6549680967399695,0,0.2100689179475757,0.6920218031459323,0.6742579815994107,0.7598584469476788,0.18291674781826409,0.25673983201168854,0.6164497224819959,0.475760952316948,0.6610447253800867,0.1476160432087159,0.7177565905376678,0.0909092011815351,0.415609590672889,0.7468976600911844,0.6691003596294087,0.15391633907137367,0.07300448413884066,0.6385949096023077,0.39797846664642333,0.5836436226971347,0.6658268477666741,0.5690124657578861,0.4441451482648162,0.7196583584097924,0.6897429336721173,0.6540456017310136,0.10469705180267468,0.5705226535060879,0.22482960854216794,0.6225702942965374,0.442648254763023,0.17117938246710918,0.6474764506569866,0.07655315743258848,0.05593114559697964,0.11619180812240723,0.631936323280691,0.7866069276754577,0.821603105739914,0.3886828269621154,0.5964830723928694,0.1356233460634129,0.625617847353265,0.6431247774959474,0.3443464255509712,0.043213453732538286,0.6843169918444655,0.6557388817241313,0.010933666616858607,0.22781564557892825,0.6053815727204572,0.4056170711093336,0.4123463326197934,0.6234779153182798,0.40558502762412946,0.4029899705968121,0.3985301303380663,0.7004681795797313,0.16966571802269653,0.7061973082543492,0.4896011292834095,0.7752828029589206,0.7284143061259258,0.06068024755344524,0.3598533901101158,0.7080811314963557,0.7054541848981702,0.46155004315310677,0.6503938303303777,0.3363264257679179,0.04631060057891617,0.33240996491568126,0.6007756889224831,0.7146407475736253,0.6381388683572923,0.44905974166539575,0.2426280592624271,0.34899661799261333,0.7107704174645688,0.015794518888393526,0.6272867124898203,0.7016421231513971,0.780040208683536,0.49847937787914776,0.1519199448116839,0.42265497834766924,0.025513863664697028],[0.5180330654235483,0.2100689179475757,0,0.5441818720808942,0.611405887489736,0.7710290431739697,0.0549998003886897,0.4725116159639613,0.46263623480852006,0.6297818016153807,0.7406775799564645,0.05606580637346361,0.5927909417671201,0.2076154387836893,0.48864685160940885,0.7639620269415807,0.7370881242182794,0.04977237736531399,0.18433156242160334,0.7100487894269195,0.36722436933867336,0.6643075791943094,0.5467610949824937,0.6663658089073604,0.5762854022376814,0.7397709780130914,0.534727478727812,0.730506832197016,0.27755426130129957,0.5514687386578476,0.4344837465932721,0.5858707506062932,0.5940714792406465,0.03699211238395966,0.5974597204713757,0.2922425800167312,0.27145728281429754,0.3095599168895532,0.4901041706586712,0.8155483044267298,0.8289913904793472,0.31329835898067226,0.5409571969509205,0.08387044776596558,0.506427783363095,0.5830839989933775,0.42732890680547175,0.22788225271960424,0.765157580157381,0.5150794370105641,0.20987477382712252,0.022843984033443242,0.7062360439929829,0.45069057285149966,0.5030442505039546,0.47985317659249593,0.21230290711023106,0.545220665339459,0.4553406303763832,0.6517373542168549,0.034279019345817084,0.5520020172662966,0.5542606518245661,0.7973984115270466,0.5883478875549343,0.2748916279805504,0.25327339644760805,0.5457773669605429,0.7900410310627427,0.6058933767430671,0.7490549634736188,0.24004585690667415,0.25866666759384793,0.27011934735137966,0.47857791122391063,0.6748748360261451,0.48247229133337743,0.5198675293915561,0.026183984794369262,0.5447613986933438,0.5697482654447888,0.1883850405141064,0.5769544260913836,0.646706940057942,0.7868475265001823,0.29979097555164463,0.052911508254294776,0.47873873966408387,0.23076914827928635],[0.04511275169151008,0.6920218031459323,0.5441818720808942,0,0.2822701512022332,0.5557997938163692,0.6055502604115914,0.89442373052426,0.07595775764225297,0.8204746549272579,0.7090480233932088,0.5822935160038253,0.08846076952835223,0.6153832371433311,0.5756156093290844,0.5665648453978438,0.6781085849031396,0.5790573665519912,0.6184063002779606,0.6706514171840153,0.3732659768832728,0.6671360234706843,0.09834654537864941,0.7078173592906069,0.7371349354393519,0.5601528171967862,0.022843984033443242,0.6950208324496838,0.6745735283889926,0.38471069351866405,0.9126828934430835,0.34685249386611655,0.7914863474512016,0.5545816546547846,0.3139808810525565,0.7643934493922804,0.747236937373872,0.71440768189473,0.055311810864979154,0.629102294300312,0.5830982505499371,0.32244763073777444,0.2888921841978264,0.6254659137702724,0.10672054481409766,0.2827146785378693,0.5792869175612712,0.6725472523186253,0.7274255029729529,0.03615404287418787,0.7026042543483336,0.5550008217392816,0.739878734827864,0.5119909225620173,0.6158482411903636,0.06242899203865277,0.5939455475375369,0.7420899427925448,0.5356847664824886,0.3363124179901333,0.5652646801884753,0.021542265723575114,0.579631075478918,0.600055766282225,0.04457395397720878,0.7306713072629671,0.3278629506486302,0.05411364484244222,0.7530146476451169,0.7822225086471175,0.7614590604097766,0.3526085636645789,0.7155938679718531,0.3735029889814295,0.11209951677305911,0.37087494220684325,0.05914157573319038,0.5807154896091727,0.5251997636785548,0.8699789502275214,0.028427983035200027,0.6784539020023883,0.30821235818810705,0.31716054790652703,0.5543783741981483,0.2927485226973002,0.5875704720229815,0.5389472220802992,0.6912377761318341],[0.24010429044897696,0.6742579815994107,0.611405887489736,0.2822701512022332,0,0.26716513969436356,0.666972070127302,0.8018296940811301,0.3026352559186382,0.6224386186711118,0.4438680250562904,0.6223183690149238,0.2028172352504911,0.5791885495759853,0.38744145827754783,0.27849947176771295,0.4083866979686233,0.6219574819696319,0.5950221109366673,0.40740754601227647,0.2704967015063113,0.4185852524354369,0.1777881649159441,0.4671005758657873,0.5404570418470714,0.2740327051010031,0.30970422864328656,0.4301834714816952,0.6126149600327112,0.1437329667832104,0.8553669680889123,0.08099235349407441,0.6010938441051412,0.6007618523065742,0.03792276673857396,0.725012463845611,0.7135613528428709,0.6457893216577938,0.25889749026911235,0.3406796213484056,0.2966151938811564,0.2938058280668312,0.0718318464091896,0.6665441777294028,0.18492216262338793,0.024944483073168378,0.42340957338599566,0.6375725559490273,0.45883378780169165,0.2533196118545445,0.6894894569088142,0.6334836870816178,0.4918608159317968,0.3374347274055074,0.4269607249425799,0.2660793372258534,0.7452836025611087,0.5607795076310687,0.3603249624359669,0.049751003342567046,0.6138623104458351,0.3094421400412862,0.35983372808548775,0.3115327991911193,0.26016119084679923,0.6877471080649903,0.3522439864355374,0.3427241633660241,0.48252384319409525,0.5841011021452911,0.5040421504001397,0.3652629507365408,0.6767835451821831,0.3448900700971612,0.20219100027922718,0.08440075969201274,0.30836110083886265,0.37766608553422665,0.6070507111371707,0.7274762013041132,0.25969702736637906,0.6691163497661561,0.04947239681532923,0.03416080140758035,0.26606171777403764,0.4866110527037892,0.6313776758276314,0.3512923333283961,0.6604636709858016],[0.512576333366073,0.7598584469476788,0.7710290431739697,0.5557997938163692,0.26716513969436356,0,0.8157381007138116,0.7992775344510015,0.5702563147517452,0.514070416497142,0.2413863419107083,0.7613215044167416,0.47416525426292416,0.6640391155868713,0.3560587242418665,0.01685140842760957,0.20097337334551515,0.7631062546847701,0.6881481143880606,0.21893590644419264,0.3982929477991434,0.26378361576314957,0.45120491681133107,0.31596021369745203,0.44942060496565306,0.04133916356285235,0.5830616029940395,0.2315825000304177,0.6677433722997009,0.22051230303459485,0.8830487674806665,0.21671454246806307,0.507549899141944,0.747236937373872,0.2386245769676355,0.7844276211670109,0.779696768631325,0.6888424139267265,0.5290464374079418,0.06797781077834442,0.05562225144735403,0.4669535415718308,0.2804977040341784,0.8005323138797821,0.45456019966062156,0.269632798540418,0.42307436150183597,0.7134963376366971,0.2444862874170598,0.5257097492532793,0.7770127689224758,0.7979432122972246,0.31992699526594776,0.34880745431230187,0.37938407964191123,0.5351199054367097,0.9460040874804715,0.4880379630314918,0.35945994884262267,0.21453060317234668,0.7602201679100938,0.5829944098898581,0.2879762693784762,0.0385413973036789,0.5322466108187865,0.7489135594905578,0.5370027007294864,0.6162261626801601,0.2596293631812595,0.4821579528399746,0.3094117388855993,0.5388833968246196,0.7433011660531884,0.49761573610544035,0.4674021068240414,0.18123559174840034,0.5784400017564637,0.3270001066777695,0.7769315706013297,0.6777508139553131,0.5328456418152221,0.7626522624672831,0.2496710170311929,0.23446988986325223,0.01766350437982364,0.7281921456862711,0.7719100285744949,0.33699463207097274,0.7366263107654244],[0.5793340463663875,0.18291674781826409,0.0549998003886897,0.6055502604115914,0.666972070127302,0.8157381007138116,0,0.4445392222746839,0.5239588623203513,0.6364440353233936,0.7701501493010234,0.05217838341530412,0.6538075051788862,0.20820906906178624,0.5167338716674191,0.8074941344603775,0.7693847480721022,0.04843143114875695,0.18088985978140615,0.7412926066779577,0.41488090900507185,0.6928633084725239,0.6074105863708297,0.6906078532852722,0.5895634639480593,0.7825450735830284,0.5959513180096805,0.7606896807870466,0.2699630500826123,0.5999053448885278,0.39415847023760364,0.6375352810924715,0.601299271945031,0.062236887760448376,0.6511991790175209,0.260485175233515,0.24011889667026184,0.2962029877704437,0.5514665873089405,0.8570240473060442,0.8747317536227626,0.3673078789218414,0.5950560342791262,0.041011138858401554,0.5669815314807156,0.6381090748469201,0.45158243406681736,0.21241263655641235,0.7945085266176991,0.5764398605205916,0.17813320435186436,0.05095660912224719,0.7298893159662179,0.4846401419186313,0.5269195730444988,0.5412290193529233,0.21684360909863576,0.5549345457429413,0.4866694741273714,0.7056379315363355,0.049149191042592695,0.6132350753451836,0.5854470853483542,0.8401414714752291,0.6497265242251069,0.24997080801037758,0.3104702562202884,0.6066534297670905,0.8186147190237493,0.6156167473587987,0.7736413204092618,0.2954206310363341,0.2350273165001547,0.3207461309539707,0.5392266447397112,0.7276168299549277,0.5437304646808299,0.5490475242048999,0.07818663204184968,0.5333328377860468,0.6311292309360212,0.16079857072625037,0.6305924853553226,0.7014319065063321,0.8324680157129248,0.3560587242418665,0.04133916356285235,0.5107113621879027,0.20923564095484037],[0.8503680960355225,0.25673983201168854,0.4725116159639613,0.89442373052426,0.8018296940811301,0.7992775344510015,0.4445392222746839,0,0.8275938042644613,0.3519527274214573,0.6248996393793227,0.4101652683241704,0.8991754653982967,0.2870493160030072,0.4400777716681724,0.780673271658745,0.6478232606470886,0.4165215149875726,0.2967854614866789,0.6169120054340032,0.5389802322125984,0.5580389787611175,0.8454666922609536,0.5219273788930097,0.369459843137343,0.7527680688798276,0.898199519675243,0.6232740052553947,0.2173644948821381,0.6670504875758948,0.10975684929881861,0.7299577733584641,0.33232493774790056,0.4320707157856915,0.765250904741892,0.17805513874279144,0.19812361245404517,0.17682776829373098,0.8327255002157565,0.8019900499960052,0.8596845767060475,0.5672431141937462,0.725530798994864,0.3971792964956665,0.8083135937055502,0.7711556208470641,0.38162991644200556,0.24313840739374365,0.64340003504314,0.854157279688625,0.2600260810689802,0.49094224663356173,0.546854382240241,0.4679995340406246,0.41353980327676787,0.8262140523805135,0.6647547798999422,0.32277593737730936,0.449104535859955,0.8114496934918985,0.4318872860782381,0.9132350898332636,0.5049348398063364,0.8000979019079214,0.9224042445144531,0.19127199095503897,0.5647521906630542,0.9217825106353237,0.6566572108390245,0.35985339011011575,0.5884124581736139,0.5395323056122091,0.20766029850625553,0.5145820820927759,0.7878923011929779,0.8150268690467349,0.8495945063918345,0.4666415762326205,0.5049630046145893,0.1581648651604203,0.906476262264785,0.2788320800732548,0.7476556465974932,0.8187630863958802,0.8225968407015875,0.7464514291782055,0.41494927644611695,0.4666618729165641,0.23590068157268496],[0.06966924388237931,0.6164497224819959,0.46263623480852006,0.07595775764225297,0.3026352559186382,0.5702563147517452,0.5239588623203513,0.8275938042644613,0,0.7794723067343721,0.6970489108957587,0.5021600421794117,0.15021257907930757,0.5434598788932338,0.5379581920191145,0.5780027349362344,0.6694005557121536,0.49873842006375585,0.5446024163618148,0.6583203669744694,0.32634789848040885,0.6477131821592013,0.13055525069164264,0.6841154053414485,0.6973150140259203,0.5677763733933477,0.0670848382828626,0.6830874417727466,0.6055816390379293,0.37575512371920583,0.8401116988239878,0.3505937385234331,0.7486990197554502,0.47424266797715675,0.32533643143627844,0.6907576406121549,0.673034957582917,0.6458390053897631,0.040731795923942334,0.6412150842834373,0.6049282393028459,0.26322777539916814,0.28773154371493276,0.5449159813649029,0.11144948679948362,0.2946202931021466,0.5326586552896059,0.5994835701377188,0.7171431208563649,0.05943395617496389,0.6263617945664814,0.4729624911534758,0.7186658904353272,0.47332288618866614,0.5769544260913836,0.031116351525486377,0.5144161915731742,0.6976696617488457,0.49607989235896977,0.35875068623946466,0.48465969466053715,0.0839501930147424,0.5517698456617742,0.6130316684400599,0.12420316086389184,0.6579230345245932,0.256867510785434,0.08785145721606366,0.7435444562218452,0.7419311850485512,0.7443521896877974,0.2820455501841647,0.6424647927423821,0.3094915356788897,0.09661336875119915,0.3934147066522219,0.015631610556983894,0.5473487590632011,0.4431637912283015,0.8134942411147321,0.10584710772594909,0.6020453389510279,0.314747918770711,0.3415637303731811,0.5722446449757033,0.2155928215388924,0.5071153702689914,0.502686036487007,0.6173354638169336],[0.769370824696007,0.475760952316948,0.6297818016153807,0.8204746549272579,0.6224386186711118,0.514070416497142,0.6364440353233936,0.3519527274214573,0.7794723067343721,0,0.2917559062849129,0.5811425668070559,0.7873088484086301,0.42184861138291535,0.23913347058993617,0.4918969454314298,0.32402052751044524,0.5866058708565587,0.44948115985135106,0.29684483467038797,0.4470208946795103,0.24454846963459304,0.7379399501258731,0.19476874940675185,0.07740252790708334,0.46670246367212537,0.8354457172769326,0.2945604810457191,0.3670669351342207,0.4723812840812656,0.46380160276381593,0.5359791468494871,0.029547530333114757,0.5877179562420219,0.578630818568897,0.4431718000822785,0.4522109388905901,0.35507727309784487,0.7640850926250873,0.49375048694492435,0.5671615131917123,0.5201228869390471,0.5621321523997517,0.5960589017038005,0.7115782478244203,0.597596841808972,0.24390677340870837,0.4301284876859041,0.30501840349538784,0.7781073587709905,0.49021776808247286,0.657592345020514,0.20591505145505087,0.3021105157976118,0.19847540998096275,0.7621464710684852,0.8484707156089086,0.08197571920891422,0.27841941942083837,0.6081629043862449,0.5954470123519493,0.8458948773981614,0.25686295189554353,0.5005882539599317,0.8295428794098528,0.4233760639633773,0.5606504152490621,0.8667891703637549,0.31230572905306464,0.03234425762480195,0.2411925184310676,0.5407466610546212,0.42982045035063027,0.49222440008996005,0.7020013813039275,0.5975272913982185,0.7990272380373289,0.24018704759611886,0.6554089142932777,0.19162990035929522,0.8186423581053904,0.4925805036314433,0.5678098162823159,0.6225092307679281,0.5380375568969276,0.7974417105707758,0.5908669971418484,0.2764149899312007,0.4438600285865228],[0.659152189743898,0.6610447253800867,0.7406775799564645,0.7090480233932088,0.4438680250562904,0.2413863419107083,0.7701501493010234,0.6248996393793227,0.6970489108957587,0.2917559062849129,0,0.7116952492893521,0.6463540211322882,0.576590160615079,0.24707533689695202,0.2181676094748052,0.03416080140758035,0.7153611100726812,0.6047554524052039,0.03234425762480195,0.4154531441344502,0.07146273835610402,0.6084752852659682,0.09662501981555624,0.24944594325573383,0.19956799070384446,0.7318866336701355,0.007641506268587013,0.5535237903563061,0.3180014688378958,0.725563592665911,0.3618729560336145,0.29611968568492714,0.7064263237851687,0.4018509158365725,0.6604258759259342,0.6618713610729364,0.5614731405733786,0.6658536275578453,0.20253594902478786,0.2835934117008623,0.5008343887574533,0.41437920834332986,0.7420258023040399,0.5967059908252683,0.43033464122590775,0.3146881183401953,0.6114719332254748,0.018108480086140542,0.670989905390075,0.6780980648973458,0.7698100641566576,0.080219794557009,0.2861481443525444,0.24258949996757978,0.6683359448627404,0.9459599817544885,0.2957663885970562,0.2790718225950695,0.40750614537303037,0.7178593373274531,0.7369073083751778,0.18053706804164657,0.2157603602749078,0.7000401895470119,0.6299987135464435,0.5655585242245419,0.7659520335842555,0.04426688112294301,0.26804993067814964,0.0616749560658905,0.5563673563936619,0.6295968965414529,0.5050404498396275,0.5989762595341686,0.38385052755321714,0.7114144137339191,0.21479120995968692,0.7564284894097291,0.4793691677971256,0.6950807164701214,0.6706124181443287,0.40093266436933683,0.42652570126333034,0.2634991685106233,0.7966216186160415,0.7226260093632522,0.2561553668943097,0.6320697996037231],[0.5521889742124451,0.1476160432087159,0.05606580637346361,0.5822935160038253,0.6223183690149238,0.7613215044167416,0.05217838341530412,0.4101652683241704,0.5021600421794117,0.5811425668070559,0.7116952492893521,0,0.6235541264296858,0.1537590421948022,0.4582555710594911,0.7525055957970849,0.7112120771826183,0,0.12793611998992016,0.6830021441712055,0.36330735737451847,0.6343664848212178,0.575147327157267,0.6320697996037231,0.5323936466248828,0.727237397912383,0.5752463786083996,0.7022910275897367,0.2199986600617759,0.548165248602981,0.3732659768832728,0.5883963161761201,0.5457773669605429,0.022053225116403397,0.6042210746872925,0.22988189457530578,0.2090964481791682,0.24991930639068202,0.5256849382634845,0.801110670891276,0.8208098697704348,0.32218109662395483,0.548684404086982,0.0385413973036789,0.5344279788044832,0.5927869357980208,0.39301826770626674,0.16714587799011338,0.7360413657464664,0.5504868613520817,0.14773289284886862,0.07624873248183883,0.671379577598186,0.4269496469582663,0.4683712803372312,0.5159578590782137,0.2646263097805852,0.49861723338071345,0.4285309338362296,0.6587084398034999,0.015956239505224293,0.5923541333757387,0.5272165399012472,0.7847644567159803,0.6241330298399432,0.21261001100942883,0.27095144516736946,0.5888965145616274,0.7601011789898169,0.5593621140023691,0.7150999993940939,0.2531254518380247,0.1964797402057547,0.27244898950203056,0.5072696000094463,0.6793435620045036,0.5228239158734473,0.49063326494930354,0.088625119168923,0.4864040877929103,0.6057228229504906,0.12596496194768164,0.5835561529138799,0.6555358443096415,0.7785233613833292,0.35491454594663746,0.004567233359056295,0.4526425367713528,0.16876357415808352],[0.0754313952831327,0.7177565905376678,0.5927909417671201,0.08846076952835223,0.2028172352504911,0.47416525426292416,0.6538075051788862,0.8991754653982967,0.15021257907930757,0.7873088484086301,0.6463540211322882,0.6235541264296858,0,0.6336074645857481,0.5421990266903345,0.4868325306441066,0.6128378854585844,0.6211203427320119,0.6407794342640672,0.6087270268374224,0.35880327144968976,0.6120310965353041,0.04732564394268499,0.6564816131550494,0.7035245096379883,0.483208231367703,0.11755492820936005,0.6324306099781182,0.6858928995194942,0.3263767523633385,0.9291352326312353,0.27831405309186713,0.7608820980203965,0.597038225190238,0.24035247861973685,0.7845824012586146,0.7689514592571574,0.7243623855411878,0.10629532372169087,0.5482864283446346,0.4967840051346117,0.3282648498296801,0.22843487389531436,0.6680085817460057,0.0859734278872557,0.21036257657557916,0.5571303164211779,0.6924632904589724,0.6629910787221314,0.08440075969201274,0.7299919996680398,0.6072541448105624,0.6856137327135771,0.48142780905323695,0.5830839989933775,0.11756461086189444,0.6674513432436251,0.7141961928208728,0.5056173996456321,0.2532502856592738,0.6087328800667282,0.11083681010647344,0.5348649713074322,0.5189385331902787,0.05195253551475695,0.7491709267606388,0.3526252785097079,0.14544996107345257,0.6876087762966557,0.7486163659643721,0.7029427222795043,0.375318336658534,0.7351307139372981,0.3838136209241266,0.11087775480750359,0.2868652107312122,0.1422869918491095,0.5421202639452981,0.5777439159706569,0.8574992962417878,0.05667773693935368,0.7065610044390058,0.2391334705899362,0.23333112336087647,0.4706032221384077,0.3716503538867408,0.6301118556438614,0.5047399907252835,0.7128608799365763],[0.5752463786083996,0.0909092011815351,0.2076154387836893,0.6153832371433311,0.5791885495759853,0.6640391155868713,0.20820906906178624,0.2870493160030072,0.5434598788932338,0.42184861138291535,0.576590160615079,0.1537590421948022,0.6336074645857481,0,0.3264452703101814,0.6515768598889974,0.5817366888776856,0.159508649424853,0.022430499988211852,0.5518235976780922,0.3023904881684822,0.49876455455639357,0.58080951412081,0.4890927328648647,0.3771876732002881,0.6245440331650504,0.6158385973335624,0.5686807357062953,0.06760569693417812,0.4732628391543244,0.29093359481925385,0.5257480912348379,0.3867399394203944,0.1642868068633188,0.5513891332219741,0.14466542802867002,0.13003720671971872,0.1058898720533131,0.5542435265109451,0.6928083839332613,0.7256422914824993,0.3003314228844959,0.5011749937360733,0.16890740760611958,0.5412487431465435,0.5479552852976796,0.2561416528874786,0.052992407846648965,0.6003802327602377,0.577217708051823,0.10755569465693708,0.23348627320019097,0.5270433293263457,0.31109082014254463,0.3279598812512494,0.5465679620558299,0.4241489083883759,0.3409596023360303,0.30570749679058506,0.6040795434627664,0.17001984132406384,0.6317087852099128,0.3996844113438935,0.6806025237898897,0.6485951243851152,0.10932204270824533,0.2811704341418028,0.6368788900788868,0.6227439113139495,0.4015097560554995,0.571703051326469,0.25639296262823985,0.0951700950649215,0.24404578738153462,0.5176576155926024,0.6177259455457773,0.5654326095559008,0.35993858002191537,0.2368942692306682,0.33279586174024306,0.6315056248264088,0.0922931927146088,0.5313233781999135,0.6057051767423267,0.6839276684381714,0.4538097410252095,0.1630801116007662,0.3300959902262369,0.07512278089668278],[0.5243660348974494,0.415609590672889,0.48864685160940885,0.5756156093290844,0.38744145827754783,0.3560587242418665,0.5167338716674191,0.4400777716681724,0.5379581920191145,0.23913347058993617,0.24707533689695202,0.4582555710594911,0.5421990266903345,0.3264452703101814,0,0.33914435401084314,0.24912674935898085,0.46196278523138273,0.3539865971734554,0.2196697407922298,0.20936918153720585,0.16976794203312412,0.4924963129041499,0.1742882513976638,0.15542899273004013,0.31109460034824354,0.5913791821940811,0.23793294195050324,0.31360979960878455,0.23899167367602503,0.520608180856579,0.30433936926910454,0.2123852093545591,0.4534549320512308,0.3451871801514462,0.42770507059879376,0.42544317277781996,0.32987478120799163,0.5201183280688938,0.37009155793915227,0.4175730399860317,0.29021017895191625,0.3212593401386679,0.48878744446794736,0.46614657495070677,0.36020385245548076,0.06498020973519031,0.366655364964032,0.27140112411777995,0.5333728617332065,0.4329020316830234,0.5178568206351715,0.21456862747289712,0.05831217235782788,0.034514430196265836,0.5187008847599329,0.6978077214362968,0.16782920663231737,0.03710263479939694,0.38260607889038695,0.4647195938136273,0.6013525928189577,0.06775152912661729,0.3628135899199568,0.5840218311040145,0.39382574693103567,0.3431948108078143,0.6232339777711503,0.2955756747632238,0.20059683183506144,0.2555146147271598,0.3281895305065088,0.3905103873958099,0.2760965301004853,0.45713840188096777,0.37933118877992256,0.5568299443614801,0.027128291941925942,0.5058845462945851,0.338271449614911,0.5731875923064766,0.4229318171951368,0.33169010226838563,0.39402661299352004,0.37873644512685384,0.5831552533310181,0.4691820427617231,0.031116351525486377,0.38860383651999225],[0.5223020665764032,0.7468976600911844,0.7639620269415807,0.5665648453978438,0.27849947176771295,0.01685140842760957,0.8074941344603775,0.780673271658745,0.5780027349362344,0.4918969454314298,0.2181676094748052,0.7525055957970849,0.4868325306441066,0.6515768598889974,0.33914435401084314,0,0.17774254533271777,0.7544624727280155,0.6761367655198078,0.19581013987950405,0.39254924104151134,0.24132821079065933,0.4618372065925947,0.293281646603375,0.42817481744759855,0.02167087790535302,0.5934335530622007,0.2083432480668285,0.6531818653483596,0.21919142393904498,0.8658526648110632,0.22208832872255224,0.4859167683169279,0.7391337689162577,0.24735927634625074,0.7695502624013928,0.7652882314154924,0.6733669622676243,0.5377112050332452,0.056829794067390325,0.07262566553750213,0.46380160276381593,0.2859306286480434,0.7911026907656956,0.46334193447956723,0.2786300352223206,0.4071435320578637,0.7000928531004119,0.22148872166362643,0.535359212601261,0.7641068996831923,0.7911869605970183,0.2967854614866789,0.3350915417188782,0.36105731644661404,0.5434009433645718,0.9423338045400019,0.4673691758048182,0.34460296657582534,0.22755928753569435,0.7520373461099883,0.5939675375161558,0.2697371311729562,0.029747357984989564,0.5446634013087492,0.7343145448067363,0.5340195042113771,0.626850956371412,0.23702742724212159,0.46031991291396224,0.2862014725651012,0.5348339276489918,0.7290901755753384,0.4922075510557593,0.4750086413691466,0.19531094347831526,0.5869417380617726,0.30935092779262896,0.7707804587428041,0.657272341034055,0.544582812623886,0.7502534511677094,0.256867510785434,0.24769486146577602,0.04003901067035672,0.7304286529585355,0.7631686381756227,0.32166932942846393,0.7231147828986989],[0.6287528202593655,0.6691003596294087,0.7370881242182794,0.6781085849031396,0.4083866979686233,0.20097337334551515,0.7693847480721022,0.6478232606470886,0.6694005557121536,0.32402052751044524,0.03416080140758035,0.7112120771826183,0.6128378854585844,0.5817366888776856,0.24912674935898085,0.17774254533271777,0,0.7145774943390737,0.6094290171282313,0.024982763293237283,0.39966076674874634,0.08384385035471058,0.5764604518656453,0.12389953528201404,0.2748702935529544,0.15903775288943595,0.7016133068194588,0.024790892204888688,0.5635910877226145,0.28807817837746025,0.7454751738553664,0.3281464832795165,0.3253906953418958,0.7043675931295869,0.36711513632621723,0.6733122279800152,0.6735664402725307,0.5742365011600942,0.6367165538174306,0.16508655281205775,0.24444322915929206,0.48415107007686997,0.3828651532532361,0.7433283800590293,0.56640772425516,0.3962503911362779,0.31927904779383526,0.6197245401711716,0.04407698449764426,0.640823939625822,0.6863019096403775,0.766051477023607,0.11619180812240723,0.2800916319895818,0.25111521993026636,0.6396713767351279,0.9385349656171065,0.3199086054246526,0.27633010238454897,0.37021586169855764,0.7161588249957841,0.706022129055925,0.17767083457152438,0.17653932214801976,0.6672963740016074,0.6416689607815645,0.5506355460243543,0.7357260799797049,0.06855654072179213,0.29774982607154543,0.10220584589086393,0.543058118926064,0.6402506989326132,0.4925805036314433,0.5699981817214721,0.3455965755999168,0.6830508869500105,0.21578196897352833,0.7512900790579586,0.5068208029683683,0.6629767352205876,0.6774718332749414,0.3673528378916438,0.3894930860590367,0.22324626532168873,0.777740114361006,0.7221665597650473,0.25238446005587517,0.6409833920468881],[0.5493650596833054,0.15391633907137367,0.04977237736531399,0.5790573665519912,0.6219574819696319,0.7631062546847701,0.04843143114875695,0.4165215149875726,0.49873842006375585,0.5866058708565587,0.7153611100726812,0,0.6211203427320119,0.159508649424853,0.46196278523138273,0.7544624727280155,0.7145774943390737,0,0.13390585099948116,0.6864734140333251,0.3642637789404646,0.6381034884103939,0.5729452667230018,0.6362236962013031,0.5374199692159212,0.7292941203976973,0.5717466465958364,0.70588060671191,0.22613394382318328,0.5492181950806185,0.3792098235073767,0.5888783695507452,0.551204060463488,0.018108480086140542,0.6042780710526909,0.23611358242234745,0.21532774404030236,0.25621478598124514,0.5226969043183398,0.8033769889978604,0.8224578474495806,0.32176808950606856,0.548613049003988,0.040502004821681974,0.5322466108187865,0.592536509559279,0.3970692496212929,0.1734960566533586,0.7397259407034726,0.5475286200237475,0.15387890143699978,0.06992129795937214,0.6755967273124067,0.42997724652403124,0.4725015916938273,0.5129092369053458,0.25863044187420464,0.5038822412434057,0.4318653788928078,0.6587679844273261,0.010081259233907399,0.5888783695507452,0.5306310295444479,0.7868475265001823,0.6211624174585335,0.21897851281156078,0.26954147512596055,0.5851164563711966,0.7638701043015107,0.5646345052204537,0.7192416871957377,0.2521385382465422,0.20285738812925444,0.272608195774486,0.5050005552793103,0.6796672657857492,0.5193221998716777,0.49424456457372423,0.08234167165811108,0.4926358212326476,0.6027254754939216,0.13222768757797465,0.5836192138295361,0.6554034738914002,0.780174491109543,0.3496983461539901,0.00303606689024527,0.455922492881914,0.17514972318776031],[0.5798419771501696,0.07300448413884066,0.18433156242160334,0.6184063002779606,0.5950221109366673,0.6881481143880606,0.18088985978140615,0.2967854614866789,0.5446024163618148,0.44948115985135106,0.6047554524052039,0.12793611998992016,0.6407794342640672,0.022430499988211852,0.3539865971734554,0.6761367655198078,0.6094290171282313,0.13390585099948116,0,0.5796433630950559,0.3190209827984037,0.5269128218758978,0.5884810567763094,0.5177240256861343,0.40580636812666226,0.6492818863186668,0.617514384795795,0.596721910417608,0.08689143908330016,0.49359928804421643,0.2895417767322664,0.5444368517560167,0.4145217977519135,0.14099791430662034,0.5686494305399349,0.13977138163993222,0.12249178250645079,0.12108731288985737,0.5577390905231779,0.7183463576671445,0.7495774519621534,0.31000024128253845,0.5173277304026755,0.14055754193390427,0.5484897777023278,0.5639194651418034,0.2840193836428029,0.0494938774014658,0.6286016367800296,0.5811732063413544,0.08811851473469451,0.20910201761646116,0.5557485569788367,0.3365959639862492,0.35630698102771063,0.5496500390591422,0.39892413912610114,0.36922027978667066,0.3321158218388681,0.621837140218226,0.1455131807395381,0.6336843446183953,0.42693579907960977,0.7056177048715202,0.6533092238635836,0.10788174418674065,0.28461387198045274,0.637311586624976,0.6510969671969702,0.42968836773979696,0.6003802327602377,0.2604536940142682,0.09185439136938603,0.2536382742889751,0.5241217688523787,0.6366120398303847,0.5664726728857533,0.38744145827754783,0.21467723229284466,0.3541264411027231,0.6359079941131903,0.06927372841287763,0.548394602175571,0.6227152964222976,0.7077182095170029,0.4435613920256386,0.13675968955401194,0.3565682945456225,0.06644500574821649],[0.620666904154713,0.6385949096023077,0.7100487894269195,0.6706514171840153,0.40740754601227647,0.21893590644419264,0.7412926066779577,0.6169120054340032,0.6583203669744694,0.29684483467038797,0.03234425762480195,0.6830021441712055,0.6087270268374224,0.5518235976780922,0.2196697407922298,0.19581013987950405,0.024982763293237283,0.6864734140333251,0.5796433630950559,0,0.378795649239808,0.05260714675641249,0.5703541253027066,0.09574750182503282,0.24483048779617309,0.17426832278572027,0.6933711560894167,0.018449061312766205,0.5327209913376006,0.27955909889009334,0.7142028548407706,0.3245395385479495,0.2966151938811564,0.6767220571638283,0.36498190241585776,0.6421317726227582,0.642509182511868,0.543051566057872,0.6272071619998472,0.19056031462215817,0.2666469549291158,0.4639419673547561,0.37621023349562766,0.7145408715087983,0.5582154342378738,0.39309037677747416,0.28929428790487044,0.5891686233852788,0.05411364484244222,0.632466304090904,0.6557733193946634,0.7390903030073616,0.09461315438159948,0.2536798101681399,0.220258274684125,0.6296516189489213,0.9132311747142603,0.2894444287840965,0.2485342454521611,0.3726173875835235,0.688384806842968,0.6984959116581743,0.14955980239681332,0.199060400535978,0.6621137666654393,0.6106088969634025,0.5293153422392115,0.7274255029729529,0.08117072265908083,0.2692499076845094,0.09165873818691683,0.5207448027166925,0.6093179219955073,0.4697369081381224,0.560322261329919,0.35018334897477177,0.6727098596571239,0.18653388047933095,0.7249008753342828,0.47707840314419053,0.6569612288158043,0.6472065823270065,0.3634858608218662,0.39134408125611314,0.24208285454561004,0.7591689818235658,0.6939523264720217,0.22492820764225596,0.610317057721692],[0.3236680065075927,0.39797846664642333,0.36722436933867336,0.3732659768832728,0.2704967015063113,0.3982929477991434,0.41488090900507185,0.5389802322125984,0.32634789848040885,0.4470208946795103,0.4154531441344502,0.36330735737451847,0.35880327144968976,0.3023904881684822,0.20936918153720585,0.39254924104151134,0.39966076674874634,0.3642637789404646,0.3190209827984037,0.378795649239808,0,0.34972530808418106,0.3055074701618056,0.3743266408966598,0.3654824727970909,0.369641809209922,0.3852902376634715,0.40270843788837957,0.33782196424052685,0.17865280008573317,0.5822935160038253,0.22118832570374142,0.41597914304305345,0.3463118741748798,0.24328265614233396,0.44852186728772464,0.4367509561935865,0.3728358170998261,0.31420556985615883,0.4471585142267103,0.4555433263866199,0.07931434179801074,0.19241020340780138,0.40526737100121646,0.27188026823188727,0.23922632762999563,0.20038218656658682,0.36068805262937537,0.4389688996462729,0.33077298495485746,0.4135140807331913,0.39365778150088493,0.41278461939231714,0.14523640009395722,0.24650650161336998,0.31112484037362154,0.5453337908182423,0.3649915972778548,0.16620275283642047,0.29673795456653534,0.3594960319055442,0.3970960205423864,0.23998253826287272,0.4269496469582663,0.3904831722413259,0.4113218750753842,0.14468131750364135,0.41541900263309917,0.4659026914358773,0.40977036693470115,0.4467481787294504,0.13931906610401368,0.4000595850506416,0.09335769190349026,0.2566485949432801,0.31329835898067226,0.3462812482778551,0.22471019545221207,0.3722593975293955,0.4931646365937502,0.37692476154625254,0.39383474308975597,0.2229900325935258,0.2973075471307398,0.4134797815570972,0.37648930881312287,0.37342716120156605,0.17708305735493673,0.38359518523477865],[0.616233872975117,0.5836436226971347,0.6643075791943094,0.6671360234706843,0.4185852524354369,0.26378361576314957,0.6928633084725239,0.5580389787611175,0.6477131821592013,0.24454846963459304,0.07146273835610402,0.6343664848212178,0.6120310965353041,0.49876455455639357,0.16976794203312412,0.24132821079065933,0.08384385035471058,0.6381034884103939,0.5269128218758978,0.05260714675641249,0.34972530808418106,0,0.5701335078038778,0.046921945874816635,0.18729753656917653,0.21684360909863576,0.6881964960461194,0.06408331387943458,0.4766437931500204,0.27927355497533496,0.6552438688676344,0.33242413403576954,0.2412070604551699,0.6295365077304248,0.37474882048697566,0.584801883065584,0.5856782130711813,0.4857387764966636,0.6199257734465379,0.24477793215453703,0.3162356072368456,0.43542190832581734,0.3772502446565408,0.6643541019595692,0.5540379819293265,0.40047276147927763,0.23685480100610626,0.5340994474443826,0.09550044246289822,0.6274230615291185,0.6007361548975492,0.6934843421380306,0.0672642989121797,0.2126264508515362,0.1649675292544845,0.6213402476439726,0.8712748626773995,0.23115849004880945,0.20351594294384082,0.39037731778371826,0.6408517539228761,0.6946922348287641,0.10672054481409766,0.24990057596302187,0.663035900183598,0.5537809451413233,0.4977609694096965,0.7219622669134452,0.1194384899682467,0.21450887206187308,0.09141362129455399,0.48696877534238664,0.552964070495218,0.43508222496777066,0.5531957466152997,0.3720945449815974,0.6635000740515423,0.13805335611441724,0.6807160665374064,0.41969083873543384,0.6563168348832014,0.5929851991292502,0.37006605465885567,0.40783946926840475,0.28763767820390934,0.7325544548142892,0.6452867511468089,0.1814401696552858,0.5548725385322654],[0.05818219654451725,0.6658268477666741,0.5467610949824937,0.09834654537864941,0.1777881649159441,0.45120491681133107,0.6074105863708297,0.8454666922609536,0.13055525069164264,0.7379399501258731,0.6084752852659682,0.575147327157267,0.04732564394268499,0.58080951412081,0.4924963129041499,0.4618372065925947,0.5764604518656453,0.5729452667230018,0.5884810567763094,0.5703541253027066,0.3055074701618056,0.5701335078038778,0,0.6129735399117608,0.6541618925043512,0.455509549895315,0.12552899207583187,0.5944730849059395,0.6324606683109453,0.28521126406378644,0.8759390778156119,0.2433547492729122,0.7108657988330408,0.5490648097179147,0.20941367670099204,0.7318394896527269,0.7164029490926854,0.6708357458785692,0.0834706599755368,0.5244089960003332,0.47966802607314246,0.2749684185251123,0.18776788780329584,0.6198146240129383,0.03436745776425189,0.1782112369475656,0.5051765372777819,0.6397828251872248,0.6261626087857569,0.07126207224495272,0.6783066814913639,0.5624550426639999,0.6434443609266159,0.43090037620811916,0.5333083772460389,0.09335769190349026,0.6329714437588243,0.6635287383372372,0.45504422219576,0.23238805513038543,0.5610079926015583,0.1258833270534507,0.4885498677484038,0.49539153420075255,0.08682708633024433,0.6962773251315105,0.3018069253866955,0.15866006833674728,0.6514035550116531,0.6993126910443288,0.6628619761413734,0.32394424043690845,0.6823612041978886,0.3307195874330249,0.06179827433706694,0.26710371147848166,0.1303096440854487,0.4938224703580432,0.5331994031876532,0.8045854701470081,0.080219794557009,0.6550334215824631,0.20440599842020168,0.21359422693741417,0.45015724859270795,0.34393556915349666,0.5820406635013048,0.4551430460739351,0.6603628793985337],[0.6565775640450503,0.5690124657578861,0.6663658089073604,0.7078173592906069,0.4671005758657873,0.31596021369745203,0.6906078532852722,0.5219273788930097,0.6841154053414485,0.19476874940675185,0.09662501981555624,0.6320697996037231,0.6564816131550494,0.4890927328648647,0.1742882513976638,0.293281646603375,0.12389953528201404,0.6362236962013031,0.5177240256861343,0.09574750182503282,0.3743266408966598,0.046921945874816635,0.6129735399117608,0,0.146458337921648,0.26937179426098884,0.7278424335950193,0.09615794470409378,0.4596276643912358,0.3242928376775544,0.6232873471847016,0.3802541822810123,0.19511449225061694,0.6295968965414529,0.42298492746778216,0.563028617710681,0.5656529420376034,0.4645641712419483,0.6585604573490804,0.2925960269770226,0.36694801225286583,0.4593314077398426,0.4218345985467565,0.6592387406048583,0.5948025606909226,0.4476477840468073,0.23295534484488678,0.5194591558463969,0.11565213113347168,0.6673676286545016,0.5857977963803545,0.6955937985198296,0.03389354254452119,0.22820477327570396,0.15734597152273747,0.6593306885651413,0.8777164304190107,0.19277209339564377,0.21413367332505379,0.4410766255290471,0.6403026640091568,0.7351177658883297,0.12840882628964215,0.2999046269592012,0.7061383585246418,0.5339240009591383,0.5181085807748079,0.7613277574965702,0.13235749770751068,0.1674706213984374,0.07665438441814794,0.5051413457215511,0.5346232271976635,0.45288300916506147,0.5922398694431984,0.42385611629994807,0.7007465736294187,0.14770174160889055,0.684923134696366,0.37719080201551697,0.6986184888910117,0.5800794066730954,0.4171142046376734,0.4581212392354508,0.3396857668200274,0.7561373726538805,0.6428808276886295,0.19543585833423044,0.5391188529551721],[0.6859639737047906,0.4441451482648162,0.5762854022376814,0.7371349354393519,0.5404570418470714,0.44942060496565306,0.5895634639480593,0.369459843137343,0.6973150140259203,0.07740252790708334,0.24944594325573383,0.5323936466248828,0.7035245096379883,0.3771876732002881,0.15542899273004013,0.42817481744759855,0.2748702935529544,0.5374199692159212,0.40580636812666226,0.24483048779617309,0.3654824727970909,0.18729753656917653,0.6541618925043512,0.146458337921648,0,0.4016950764955188,0.752421775029189,0.24864720946545452,0.33307880963270836,0.39033799322014956,0.472939957466648,0.4544768757147078,0.05505842303368005,0.5356515556567798,0.49688178690536944,0.4254848586636685,0.4309525187862891,0.32994972313691584,0.681084514523549,0.43790048218799965,0.5056384952381137,0.44080833568642164,0.4789415549008293,0.5523715728838189,0.6279511372354291,0.5150932456538199,0.16658478304532492,0.395829893551589,0.2675597064724374,0.6948154769819938,0.45997005695903576,0.6048811204472769,0.17169904979828907,0.21879205043730982,0.11491233852257175,0.6793313107529496,0.7941622986733174,0.04080814433149419,0.19531094347831526,0.5281715624992822,0.544569743077753,0.7626881547674905,0.1767753573268682,0.44102029800716874,0.7458198792364348,0.4000832064463591,0.4848136453045704,0.7839600620315508,0.28124972085545646,0.0387811638232817,0.21468808984043894,0.46606021393742963,0.40347925940241247,0.4162063992583676,0.6186482817301524,0.5191395363850473,0.7166519703486162,0.15702314055698072,0.5997232058862867,0.22601003681539278,0.7349996044952205,0.45839761054759237,0.48550704685976065,0.5419189299725526,0.4734654677802883,0.7235687033034303,0.5426538790930348,0.19265153650883177,0.41275885050399164],[0.5146373671952443,0.7196583584097924,0.7397709780130914,0.5601528171967862,0.2740327051010031,0.04133916356285235,0.7825450735830284,0.7527680688798276,0.5677763733933477,0.46670246367212537,0.19956799070384446,0.727237397912383,0.483208231367703,0.6245440331650504,0.31109460034824354,0.02167087790535302,0.15903775288943595,0.7292941203976973,0.6492818863186668,0.17426832278572027,0.369641809209922,0.21684360909863576,0.455509549895315,0.26937179426098884,0.4016950764955188,0,0.5864540612189919,0.18880973821711092,0.6254659137702724,0.2008691688023244,0.8377947268932218,0.21079955714990684,0.4598851258646341,0.7142961166530333,0.23981198405021711,0.7417499355424806,0.7375996594225708,0.6454561588554873,0.5286809585564336,0.07232129795435696,0.10055769147345381,0.4428005732151666,0.2740968946433028,0.7654748377071662,0.4546461117072171,0.27112016016454266,0.3791849233450159,0.6727080923953609,0.20532632636292447,0.5275672877953458,0.7368847033019505,0.767189503530721,0.27512619997395216,0.3077198614649993,0.33307880963270836,0.5338884605557961,0.9205067171495357,0.44037605053361945,0.3168785173050465,0.2259532240196816,0.7271457814625412,0.5877785555813779,0.24173484262844677,0.0512488653446027,0.5405448214386662,0.7065812043427669,0.5130478837437087,0.620144182107649,0.22307896207599046,0.4345735701311737,0.26752465688531335,0.5129993615602622,0.7014573392584554,0.4693864093708442,0.4648494979304279,0.19566763818429242,0.5776124084410749,0.2812997854159813,0.7472034942883549,0.6301495652073172,0.5395235120074957,0.723224999677712,0.24734035693512132,0.24614082409360916,0.06538266447701185,0.7139763116003573,0.7379399501258731,0.2938418069362338,0.6956912417197887],[0.06649442305874187,0.6897429336721173,0.534727478727812,0.022843984033443242,0.30970422864328656,0.5830616029940395,0.5959513180096805,0.898199519675243,0.0670848382828626,0.8354457172769326,0.7318866336701355,0.5752463786083996,0.11755492820936005,0.6158385973335624,0.5913791821940811,0.5934335530622007,0.7016133068194588,0.5717466465958364,0.617514384795795,0.6933711560894167,0.3852902376634715,0.6881964960461194,0.12552899207583187,0.7278424335950193,0.752421775029189,0.5864540612189919,0,0.717857680236822,0.6769591947481416,0.40753804013766326,0.9127769077453295,0.3720216065238968,0.8058157956719586,0.5472512196568472,0.34027826712722387,0.7636706411870544,0.7460767096975961,0.7170734508810296,0.06498020973519031,0.656130278162802,0.611231026450752,0.32929609539386073,0.31285882425947426,0.6177913225430054,0.1288355116880543,0.30895536984600264,0.5919691573009525,0.672221920750545,0.7506546391723964,0.05452878832174198,0.6997479204153452,0.5441818720808942,0.7605817182763824,0.5272952533967153,0.6312798151529028,0.06799394741217794,0.5749243996832827,0.7557926096353582,0.5507346470942496,0.3641633896992741,0.5575284353988449,0.010933666616858607,0.5983375536008518,0.6271711715920737,0.06966924388237931,0.7305931454720671,0.3286089510801217,0.02773159571780067,0.776441137648188,0.7973984115270466,0.7831898081240979,0.3536767494751324,0.7152347243447427,0.37826248417329633,0.12939350146662573,0.39881456612496985,0.04603660323215605,0.5978253082192171,0.5144161915731742,0.8789711964308444,0.05606580637346361,0.6754471297251313,0.33370046636102446,0.34517693915701686,0.5820569798446962,0.2727759095021612,0.5800548494560267,0.5550820526107026,0.6902944009315105],[0.6451228256838534,0.6540456017310136,0.730506832197016,0.6950208324496838,0.4301834714816952,0.2315825000304177,0.7606896807870466,0.6232740052553947,0.6830874417727466,0.2945604810457191,0.007641506268587013,0.7022910275897367,0.6324306099781182,0.5686807357062953,0.23793294195050324,0.2083432480668285,0.024790892204888688,0.70588060671191,0.596721910417608,0.018449061312766205,0.40270843788837957,0.06408331387943458,0.5944730849059395,0.09615794470409378,0.24864720946545452,0.18880973821711092,0.717857680236822,0,0.5471124673386317,0.3039722277299815,0.7227346540202004,0.3479956091617803,0.29727593112852013,0.6966205463711268,0.38807175855052045,0.654997130799858,0.6560415094359404,0.555959878844943,0.6518394665958981,0.19599998606204172,0.27562029391431436,0.48798941375521604,0.40036950671869403,0.7331015856617876,0.5826766660045692,0.4164789455031032,0.30638739789118935,0.6045138615538148,0.029879964754855055,0.6569612288158043,0.6711511151634258,0.7596062373845076,0.08522977658660856,0.2751091467836444,0.23532044391908216,0.6543344738809892,0.9349503082752625,0.2944527893772741,0.2687792680018851,0.3942034116507512,0.7081466394301202,0.7228794883851307,0.16993818368659547,0.207716359941929,0.6860662383886756,0.6241482569627717,0.5530155623692894,0.7519234038180339,0.056829794067390325,0.26940225748819124,0.07261047500945525,0.5440990327608931,0.6234112230307134,0.49290510631285384,0.5849642643770123,0.3708653985383124,0.6974241554359164,0.2052753020145572,0.7458964589825006,0.47973468838386024,0.681079277310443,0.6632510014376666,0.38703594990339574,0.41315093891800914,0.25405794305919144,0.7835180554668087,0.7132312148525535,0.24557464222680897,0.6253272424904842],[0.6321957305481732,0.10469705180267468,0.27755426130129957,0.6745735283889926,0.6126149600327112,0.6677433722997009,0.2699630500826123,0.2173644948821381,0.6055816390379293,0.3670669351342207,0.5535237903563061,0.2199986600617759,0.6858928995194942,0.06760569693417812,0.31360979960878455,0.6531818653483596,0.5635910877226145,0.22613394382318328,0.08689143908330016,0.5327209913376006,0.33782196424052685,0.4766437931500204,0.6324606683109453,0.4596276643912358,0.33307880963270836,0.6254659137702724,0.6769591947481416,0.5471124673386317,0,0.49409111695649016,0.2386245769676355,0.5513762231617879,0.3332731995820062,0.2342505475454192,0.5810690254047265,0.11083681010647344,0.10581502378424988,0.03416080140758035,0.6129948543388928,0.6889442552694757,0.729750751764433,0.35132253019432585,0.5344745785740873,0.2262165118258536,0.5939215575512644,0.5812998328029912,0.2424689636630416,0.05684877549986597,0.5764398605205916,0.6351601512306748,0.1207668098270107,0.3019198336559494,0.49541066801136086,0.31294903454868683,0.30609180350206455,0.6059698164714682,0.4907757100514747,0.29227472884289646,0.30219997902697915,0.6318347873879456,0.23841876236345969,0.6923550917511825,0.3876699444077926,0.6796672657857492,0.70503088143501,0.07478342837522901,0.34233892859166926,0.6996000405316178,0.5969049555360063,0.3512923333283961,0.5404460684073719,0.3171494197803685,0.07054782048857836,0.2965121949431918,0.5718462805835011,0.6418818952654347,0.6276010286418687,0.34660778752442584,0.30794902569307514,0.26084918817184455,0.6885108947156753,0.11957195231159949,0.5617435968749833,0.6356407403254286,0.6889770484590466,0.5264873258200559,0.22817407613837623,0.32542324942563106,0.07359185848093837],[0.33477156897615135,0.5705226535060879,0.5514687386578476,0.38471069351866405,0.1437329667832104,0.22051230303459485,0.5999053448885278,0.6670504875758948,0.37575512371920583,0.4723812840812656,0.3180014688378958,0.548165248602981,0.3263767523633385,0.4732628391543244,0.23899167367602503,0.21919142393904498,0.28807817837746025,0.5492181950806185,0.49359928804421643,0.27955909889009334,0.17865280008573317,0.27927355497533496,0.28521126406378644,0.3242928376775544,0.39033799322014956,0.2008691688023244,0.40753804013766326,0.3039722277299815,0.49409111695649016,0,0.7303748999199021,0.05897653700188489,0.4510186651445032,0.5313479290336179,0.10033301568570625,0.610276189206329,0.6015026560939166,0.5232251628240021,0.3422563229029224,0.279391166434406,0.2741011734238227,0.24064900366311692,0.09159751644909914,0.5897245482039501,0.2723327545585204,0.1194384899682467,0.28138320699483377,0.5285889889926492,0.33679185881337254,0.3466621813692147,0.5869417380617726,0.577355472357379,0.3528491823999622,0.19416525728938647,0.27781197384200923,0.3453305227637899,0.7196864585727066,0.4113218750753842,0.21557119442593117,0.1388983879634983,0.5445348894389368,0.41254977761913464,0.21022964840324992,0.2551431769486544,0.3777504493901046,0.5731461763097342,0.31044374168868444,0.44162075979175586,0.3627355662594787,0.4340071034666797,0.3712628470611894,0.3134860101305049,0.5642876123701362,0.2752668493972855,0.27558199002072237,0.14238382741553157,0.3888286139933688,0.22769775574814452,0.5548404631488809,0.5819835527361982,0.3717138417063596,0.5692543620408531,0.08922950152322895,0.14891200985808445,0.23279483299166637,0.5070896608084359,0.5583514586449803,0.2038415924115287,0.5520106143607627],[0.8724186558352051,0.22482960854216794,0.4344837465932721,0.9126828934430835,0.8553669680889123,0.8830487674806665,0.39415847023760364,0.10975684929881861,0.8401116988239878,0.46380160276381593,0.725563592665911,0.3732659768832728,0.9291352326312353,0.29093359481925385,0.520608180856579,0.8658526648110632,0.7454751738553664,0.3792098235073767,0.2895417767322664,0.7142028548407706,0.5822935160038253,0.6552438688676344,0.8759390778156119,0.6232873471847016,0.472939957466648,0.8377947268932218,0.9127769077453295,0.7227346540202004,0.2386245769676355,0.7303748999199021,0,0.7903483801721626,0.4415912916205227,0.3992319695739355,0.8221957238341253,0.14417999354109792,0.16350448950306024,0.20329283874441414,0.8515649422020815,0.8924551200641367,0.9444806266252213,0.5945929151814696,0.7774768166956505,0.348925693414209,0.836897181352715,0.8241329015325166,0.4554263972382261,0.23426550905416893,0.7453235172734781,0.8745124339194217,0.22034827560756087,0.4471717446749154,0.6510075188176709,0.5377288506788414,0.4997566653425301,0.8438661350829346,0.603081997198623,0.4257487758925719,0.5219182922560811,0.871566076841669,0.39559708889872897,0.9287695470593319,0.5902880006330198,0.8880045367410222,0.9457016071856738,0.17580303492925617,0.5784400017564637,0.9330972836018643,0.7603453994558921,0.46833588847004665,0.6938237905078024,0.5537080966059337,0.19136304628117903,0.5389472220802992,0.8139786152100033,0.8791108063062517,0.8620329752761051,0.5501678095313943,0.4667126108168629,0.2735872528672897,0.928707943839369,0.24400265337344973,0.8033547573892106,0.8766175571890807,0.9057107862969438,0.7295877016567511,0.375189404698313,0.542236216278244,0.21742348787149662],[0.29948508291841613,0.6225702942965374,0.5858707506062932,0.34685249386611655,0.08099235349407441,0.21671454246806307,0.6375352810924715,0.7299577733584641,0.3505937385234331,0.5359791468494871,0.3618729560336145,0.5883963161761201,0.27831405309186713,0.5257480912348379,0.30433936926910454,0.22208832872255224,0.3281464832795165,0.5888783695507452,0.5444368517560167,0.3245395385479495,0.22118832570374142,0.33242413403576954,0.2433547492729122,0.3802541822810123,0.4544768757147078,0.21079955714990684,0.3720216065238968,0.3479956091617803,0.5513762231617879,0.05897653700188489,0.7903483801721626,0,0.5153900430929754,0.5695315836147845,0.03668671354315665,0.6665174254202413,0.6567513265351986,0.5820243467054702,0.3120005517269976,0.2852112640637864,0.2603997175672089,0.267380029906465,0.05749078831361096,0.6312647583314626,0.23844327317459194,0.062201901903915696,0.34577724040329544,0.5824708557707594,0.3782905639156078,0.31218143284018673,0.6385949096023077,0.6103462478603019,0.40592281540167263,0.2586847785971463,0.343029984579088,0.3169119285081774,0.7407113151675246,0.47637289546552136,0.2804977040341784,0.07515222306714442,0.5827683404810903,0.3747362248827536,0.2729864840345873,0.2577186399234591,0.33300455864441775,0.6292439182280076,0.33404964941366344,0.4060130394241541,0.4029547895973517,0.4977800132972407,0.41996115753654295,0.34156373037318105,0.619592265938448,0.31040207151247307,0.24769486146577607,0.08585640783050898,0.3606913220798562,0.2924314048397944,0.5860490453380114,0.64722861657144,0.3294176306571461,0.6198146240129383,0.03283689583877948,0.08368410095401653,0.22270732172696034,0.5067623369719453,0.59818273449076,0.26918023400699514,0.6057757585229684],[0.7405747584874661,0.442648254763023,0.5940714792406465,0.7914863474512016,0.6010938441051412,0.507549899141944,0.601299271945031,0.33232493774790056,0.7486990197554502,0.029547530333114757,0.29611968568492714,0.5457773669605429,0.7608820980203965,0.3867399394203944,0.2123852093545591,0.4859167683169279,0.3253906953418958,0.551204060463488,0.4145217977519135,0.2966151938811564,0.41597914304305345,0.2412070604551699,0.7108657988330408,0.19511449225061694,0.05505842303368005,0.4598851258646341,0.8058157956719586,0.29727593112852013,0.3332731995820062,0.4510186651445032,0.4415912916205227,0.5153900430929754,0,0.5520858332920889,0.557662497762455,0.41292202671747985,0.4211530211527456,0.32284884994941765,0.7344522554127749,0.492303823583481,0.5626195828712782,0.48746720760821594,0.538478262374254,0.5612554142022069,0.6835189903233456,0.5753784209762638,0.21114188913295276,0.39645302741307376,0.31166866918075115,0.7490311331962342,0.4573868942631797,0.6219422017549648,0.21271410917652683,0.2738057842794364,0.17148326852686807,0.7322181824122451,0.8127620150869309,0.04685436527138394,0.24980221875094635,0.5894829054901446,0.559907033147365,0.8166033085683284,0.2381931476484972,0.497082060978555,0.8019083912367916,0.39178137316125194,0.5265526356382744,0.8368288662035217,0.32176808950606856,0.0218839314070938,0.25176689183176915,0.5063411849931849,0.39760730167795644,0.45825557105949105,0.6731126753471209,0.580584647842503,0.7684915988280399,0.21713910571040018,0.6195884314858928,0.17777513190242708,0.7905908612258733,0.459050433887646,0.5459620852178977,0.6031036575413556,0.5315978373808143,0.7626881547674905,0.5555585129227062,0.24988652724389795,0.4107698659266333],[0.5250349292510089,0.17117938246710918,0.03699211238395966,0.5545816546547846,0.6007618523065742,0.747236937373872,0.062236887760448376,0.4320707157856915,0.47424266797715675,0.5877179562420219,0.7064263237851687,0.022053225116403397,0.597038225190238,0.1642868068633188,0.4534549320512308,0.7391337689162577,0.7043675931295869,0.018108480086140542,0.14099791430662034,0.6767220571638283,0.3463118741748798,0.6295365077304248,0.5490648097179147,0.6295968965414529,0.5356515556567798,0.7142961166530333,0.5472512196568472,0.6966205463711268,0.2342505475454192,0.5313479290336179,0.3992319695739355,0.5695315836147845,0.5520858332920889,0,0.5839527143317631,0.2540118586903573,0.23327604604923458,0.2666557459145262,0.49829392662622485,0.789036799879493,0.806152626979646,0.30064429009314236,0.5280345935652727,0.06471064097169182,0.5083898807943292,0.5715701692710674,0.39025933239681504,0.18562973506285746,0.7308585361777312,0.523136778594834,0.1728276390548582,0.06351905660946061,0.6692495861888222,0.4186925524808439,0.4659408065359545,0.4884843928975224,0.25461491902816674,0.5036940486421105,0.4218093742860673,0.6384292829411458,0.006849230788466143,0.5643822404197516,0.5207743994528033,0.7719100285744949,0.5967636973483526,0.23447487259451735,0.24671996465750295,0.5606694635142007,0.7553626180642002,0.5644242922952811,0.7124953626170648,0.2300240789347708,0.21802326096109073,0.25280615892203745,0.4810660201411457,0.6599127309893124,0.4948267581852591,0.4852703260115365,0.06775152912661729,0.5014799250531488,0.5783168610876711,0.15012058742591358,0.5633151886815544,0.634658608417912,0.7638934755041737,0.32710808425907545,0.02673206336738045,0.44560522325024715,0.18982770880984065],[0.2686920241400315,0.6474764506569866,0.5974597204713757,0.3139808810525565,0.03792276673857396,0.2386245769676355,0.6511991790175209,0.765250904741892,0.32533643143627844,0.578630818568897,0.4018509158365725,0.6042210746872925,0.24035247861973685,0.5513891332219741,0.3451871801514462,0.24735927634625074,0.36711513632621723,0.6042780710526909,0.5686494305399349,0.36498190241585776,0.24328265614233396,0.37474882048697566,0.20941367670099204,0.42298492746778216,0.49688178690536944,0.23981198405021711,0.34027826712722387,0.38807175855052045,0.5810690254047265,0.10033301568570625,0.8221957238341253,0.03668671354315665,0.557662497762455,0.5839527143317631,0,0.6949472536532227,0.6843117791415401,0.6130549183240402,0.2841268118100157,0.31040207151247307,0.2750366591964755,0.27781197384200923,0.05043098414957703,0.6478617837422934,0.20968045526219645,0.024944483073168378,0.38374287345944474,0.6090605720630089,0.4174739509553435,0.28170415454675807,0.663120156407779,0.6207874704498383,0.4481312462962484,0.29711384742522096,0.38434228283114935,0.2901090027441899,0.7421604909820503,0.5179781383374029,0.31955163718850355,0.048102051260264324,0.5971515806840866,0.34164994877422217,0.31581125431839546,0.28183326629170646,0.29639330647669987,0.6576357235186256,0.3408524757845882,0.3739450163883438,0.44162075979175586,0.5403604680190451,0.4611292355962993,0.3512285760157911,0.6473020586888031,0.3254087813382956,0.22263920958420477,0.07357685149631445,0.3334710096576061,0.3344125611256438,0.5953612583026542,0.6867539660511989,0.29417740203320014,0.6435016107182446,0.014282173570332013,0.04819008026212648,0.24078499440031337,0.49548480463736516,0.6136610448687623,0.3094611392776408,0.6321882129798978],[0.725289720409804,0.07655315743258848,0.2922425800167312,0.7643934493922804,0.725012463845611,0.7844276211670109,0.260485175233515,0.17805513874279144,0.6907576406121549,0.4431718000822785,0.6604258759259342,0.22988189457530578,0.7845824012586146,0.14466542802867002,0.42770507059879376,0.7695502624013928,0.6733122279800152,0.23611358242234745,0.13977138163993222,0.6421317726227582,0.44852186728772464,0.584801883065584,0.7318394896527269,0.563028617710681,0.4254848586636685,0.7417499355424806,0.7636706411870544,0.654997130799858,0.11083681010647344,0.610276189206329,0.14417999354109792,0.6665174254202413,0.41292202671747985,0.2540118586903573,0.6949472536532227,0,0.014397973013866127,0.09269372014850534,0.703590438000053,0.8039992264260389,0.8464368428021851,0.4513307904930204,0.6467951399949287,0.21323932441165222,0.6922211082289523,0.6936849451592859,0.35720260274363386,0.08580435123877923,0.6825911751582872,0.7268806837072982,0.07648077673741535,0.3086393278121268,0.5966204158158328,0.42997724652403124,0.4166123155694712,0.6956091851874764,0.48034656698636147,0.3806760978240244,0.4186304347036244,0.7464514291782055,0.2520828253509277,0.7798265302835058,0.5013617563542978,0.7954849522962729,0.7987217114115279,0.030923856412412666,0.43033464122590775,0.7833904199335393,0.7015827941307473,0.43521269428027765,0.6414374308722273,0.40592281540167263,0.04311657606368956,0.3950802583553127,0.6684551082965213,0.7575368633644339,0.7126222298630573,0.46019646429630273,0.3248114219874155,0.29149414169329235,0.7814551259621122,0.09759904895244527,0.6753115835711497,0.7495060082920322,0.8058172733072453,0.5805969154970825,0.23351128797073947,0.4415243112939945,0.06710117099477961],[0.7086855921416796,0.05593114559697964,0.27145728281429754,0.747236937373872,0.7135613528428709,0.779696768631325,0.24011889667026184,0.19812361245404517,0.673034957582917,0.4522109388905901,0.6618713610729364,0.2090964481791682,0.7689514592571574,0.13003720671971872,0.42544317277781996,0.7652882314154924,0.6735664402725307,0.21532774404030236,0.12249178250645079,0.642509182511868,0.4367509561935865,0.5856782130711813,0.7164029490926854,0.5656529420376034,0.4309525187862891,0.7375996594225708,0.7460767096975961,0.6560415094359404,0.10581502378424988,0.6015026560939166,0.16350448950306024,0.6567513265351986,0.4211530211527456,0.23327604604923458,0.6843117791415401,0.014397973013866127,0,0.09499268045247716,0.6866119724347506,0.8010972945618966,0.8416952846967007,0.4365234026518419,0.6353845955970915,0.1928142710690211,0.6766060932678853,0.6822566465553357,0.354459184704899,0.07065693812035577,0.684344792262354,0.7100521397275137,0.055834780901995146,0.2879354958988504,0.6000023313762475,0.4246642962697831,0.4162717128053062,0.6784959591929953,0.4605332991353561,0.3869139107177464,0.41433927464904374,0.7362434016033862,0.23129991075260378,0.7623213501766462,0.49940086859491895,0.791866812835495,0.7821479347703975,0.025513863664697028,0.4134883566137949,0.7654064206389344,0.7038980227771529,0.44265092746184564,0.644940433159232,0.3892747526184331,0.03082723547737656,0.38016726015082175,0.6525392394843498,0.7481282061736922,0.6948565528865069,0.4582788168559466,0.3040263600799687,0.3064449487089319,0.7647717187245965,0.07682762991199313,0.6645151173896265,0.7388181810167744,0.800801472419783,0.56042602084716,0.2127414952118247,0.43761675845812814,0.04977237736531399],[0.6716699148262598,0.11619180812240723,0.3095599168895532,0.71440768189473,0.6457893216577938,0.6888424139267265,0.2962029877704437,0.17682776829373098,0.6458390053897631,0.35507727309784487,0.5614731405733786,0.24991930639068202,0.7243623855411878,0.1058898720533131,0.32987478120799163,0.6733669622676243,0.5742365011600942,0.25621478598124514,0.12108731288985737,0.543051566057872,0.3728358170998261,0.4857387764966636,0.6708357458785692,0.4645641712419483,0.32994972313691584,0.6454561588554873,0.7170734508810296,0.555959878844943,0.03416080140758035,0.5232251628240021,0.20329283874441414,0.5820243467054702,0.32284884994941765,0.2666557459145262,0.6130549183240402,0.09269372014850534,0.09499268045247716,0,0.6527887182456459,0.7063539224179437,0.7508052279960576,0.3900656392625964,0.5678453472177573,0.2505973626909146,0.6325677396298741,0.6145353016554509,0.2600260810689802,0.07740252790708334,0.5837351469588099,0.6748078902910281,0.12942885199230533,0.332505594979816,0.49868852318631746,0.3361547910186663,0.31767943544960736,0.6458684458154668,0.5189019788913498,0.28645977172194814,0.3231986057654481,0.6629767352205876,0.2695806174326529,0.732400145903806,0.4031922027003118,0.6985367731040742,0.744364978472955,0.06375899281565105,0.3826338451104247,0.7398996410642099,0.6029677753860305,0.3432463030690697,0.5436082811321504,0.35743028712201436,0.06838018183643468,0.3357095409457578,0.610836435780004,0.6716610649188598,0.6678573005473251,0.36204238221631574,0.34076951639633263,0.23077926913765637,0.7279617466220827,0.1353441874925158,0.5940514918448835,0.6675510747096896,0.7106097464789027,0.5659423928714848,0.2572137557188849,0.34546698524589037,0.08474380760090613],[0.02448141796817933,0.631936323280691,0.4901041706586712,0.055311810864979154,0.25889749026911235,0.5290464374079418,0.5514665873089405,0.8327255002157565,0.040731795923942334,0.7640850926250873,0.6658536275578453,0.5256849382634845,0.10629532372169087,0.5542435265109451,0.5201183280688938,0.5377112050332452,0.6367165538174306,0.5226969043183398,0.5577390905231779,0.6272071619998472,0.31420556985615883,0.6199257734465379,0.0834706599755368,0.6585604573490804,0.681084514523549,0.5286809585564336,0.06498020973519031,0.6518394665958981,0.6129948543388928,0.3422563229029224,0.8515649422020815,0.3120005517269976,0.7344522554127749,0.49829392662622485,0.2841268118100157,0.703590438000053,0.6866119724347506,0.6527887182456459,0,0.6008369615744505,0.5618133030173809,0.2609524595199497,0.2504432037734318,0.5693544273262438,0.06810680597702097,0.2530283173351286,0.5207880589244259,0.6116370166859342,0.6852199334120428,0.018593603328478047,0.642814280013556,0.5024997598820607,0.6918877556730529,0.4559796006024531,0.5599663700976463,0.004891099097182202,0.5550029595443775,0.6844698802989279,0.4793914032543314,0.3148375985427616,0.5093378790304081,0.07665438441814794,0.528194013074789,0.5723421194811452,0.09208622462698958,0.6696544636647612,0.2668842122723099,0.09699716059920391,0.7113073998547206,0.7260504058845482,0.7155938679718531,0.2914820546970788,0.6546776860062664,0.31180448115310944,0.0605190043613601,0.3496174481117067,0.04311657606368956,0.5269128218758978,0.47275964982174407,0.8093132196449404,0.07365185828221193,0.6187653978313644,0.27496841852511233,0.29714943418887657,0.5300876928252013,0.2593043352215756,0.5313836373363908,0.48390145558812125,0.6305510335578175],[0.5851976094254957,0.7866069276754577,0.8155483044267298,0.629102294300312,0.3406796213484056,0.06797781077834442,0.8570240473060442,0.8019900499960052,0.6412150842834373,0.49375048694492435,0.20253594902478786,0.801110670891276,0.5482864283446346,0.6928083839332613,0.37009155793915227,0.056829794067390325,0.16508655281205775,0.8033769889978604,0.7183463576671445,0.19056031462215817,0.4471585142267103,0.24477793215453703,0.5244089960003332,0.2925960269770226,0.43790048218799965,0.07232129795435696,0.656130278162802,0.19599998606204172,0.6889442552694757,0.279391166434406,0.8924551200641367,0.2852112640637864,0.492303823583481,0.789036799879493,0.31040207151247307,0.8039992264260389,0.8010972945618966,0.7063539224179437,0.6008369615744505,0,0.07906190470425627,0.5212795644078644,0.3490202563735091,0.8384768488217106,0.5264400275061393,0.34163615526541274,0.4404297733024073,0.7388181810167744,0.19903703289874317,0.5982780124804027,0.8039059212732185,0.8432222427916971,0.2876091044912478,0.3753843581168065,0.3864864750329189,0.606575117356414,0.9985106277268988,0.4802873865495629,0.38176907682171296,0.2886644889369584,0.8017762350388784,0.6564182417445801,0.29722454810313576,0.023048548106486523,0.6062989862780119,0.7696786277101095,0.591515690773737,0.6894549631384809,0.2083432480668285,0.46536112467300766,0.2680280643442812,0.5911080800936861,0.7655619052059672,0.5468717362736868,0.5382226966342366,0.25555585307903167,0.6500940835593041,0.33821573134029026,0.8237744524228824,0.6699597371642961,0.6066377680852915,0.7913314024539113,0.3200814290358939,0.3086659942009413,0.07745980090985767,0.7920727599287165,0.8118883456554514,0.3578358062735216,0.7614856308866529],[0.5428571287382056,0.821603105739914,0.8289913904793472,0.5830982505499371,0.2966151938811564,0.05562225144735403,0.8747317536227626,0.8596845767060475,0.6049282393028459,0.5671615131917123,0.2835934117008623,0.8208098697704348,0.4967840051346117,0.7256422914824993,0.4175730399860317,0.07262566553750213,0.24444322915929206,0.8224578474495806,0.7495774519621534,0.2666469549291158,0.4555433263866199,0.3162356072368456,0.47966802607314246,0.36694801225286583,0.5056384952381137,0.10055769147345381,0.611231026450752,0.27562029391431436,0.729750751764433,0.2741011734238227,0.9444806266252213,0.2603997175672089,0.5626195828712782,0.806152626979646,0.2750366591964755,0.8464368428021851,0.8416952846967007,0.7508052279960576,0.5618133030173809,0.07906190470425627,0,0.5211021291463929,0.3227649990984444,0.8604616222080436,0.48760327726012626,0.3047099353095669,0.4849333513440165,0.7753564965197295,0.28238238620208056,0.5560900477369469,0.8387396029933816,0.8555828052290532,0.36649769052307574,0.4107698659266333,0.4400240065382766,0.5687558611534633,1,0.5455425769398031,0.4214616886352929,0.24103735032695425,0.8191949454234376,0.6095673707608216,0.34867227569586695,0.06151607492768164,0.5551162515672283,0.810921238048467,0.5907323501494219,0.6435459296741971,0.2931654824284326,0.5365806909270356,0.35047605209244265,0.5939215575512644,0.8052851507758074,0.5542670736823132,0.5030536737872071,0.20624267089101989,0.6113029197588582,0.38811739335281553,0.8339731808650668,0.7355659605450765,0.5576476035178324,0.8242152651507112,0.28907502644907396,0.259697027366379,0.035899383336835344,0.773448973460501,0.831334143704329,0.3989507875395268,0.7985070282425353],[0.2769449608906056,0.3886828269621154,0.31329835898067226,0.32244763073777444,0.2938058280668312,0.4669535415718308,0.3673078789218414,0.5672431141937462,0.26322777539916814,0.5201228869390471,0.5008343887574533,0.32218109662395483,0.3282648498296801,0.3003314228844959,0.29021017895191625,0.46380160276381593,0.48415107007686997,0.32176808950606856,0.31000024128253845,0.4639419673547561,0.07931434179801074,0.43542190832581734,0.2749684185251123,0.4593314077398426,0.44080833568642164,0.4428005732151666,0.32929609539386073,0.48798941375521604,0.35132253019432585,0.24064900366311692,0.5945929151814696,0.267380029906465,0.48746720760821594,0.30064429009314236,0.27781197384200923,0.4513307904930204,0.4365234026518419,0.3900656392625964,0.2609524595199497,0.5212795644078644,0.5211021291463929,0,0.22144131705453382,0.3665363108358849,0.2362125424133225,0.26454215832812183,0.26995870722994075,0.35958786364886597,0.5242303454213004,0.2813123001948536,0.40228577517692204,0.3370156017810679,0.4980465522317563,0.22755928753569435,0.32511928699005227,0.25549628448636924,0.47271205732143134,0.43508222496777066,0.24671996465750295,0.33215481934698887,0.3137747777934767,0.34316391181011996,0.32533281352695603,0.49916590557167767,0.3487736644816829,0.41540477619190713,0.0638615717515388,0.35630698102771063,0.551204060463488,0.4840213842878109,0.5323825089534957,0.06780007615429781,0.40182739672945655,0.050006956958626995,0.21450887206187308,0.3553162495616343,0.2845685025266222,0.308212358188107,0.31232832315651293,0.5439464013719493,0.33291968047606973,0.37999335722721594,0.2572820398090426,0.32774444172549505,0.47982355724738773,0.290856891181874,0.33118919574640837,0.26010715515555605,0.3807784050715597],[0.23999228065185302,0.5964830723928694,0.5409571969509205,0.2888921841978264,0.0718318464091896,0.2804977040341784,0.5950560342791262,0.725530798994864,0.28773154371493276,0.5621321523997517,0.41437920834332986,0.548684404086982,0.22843487389531436,0.5011749937360733,0.3212593401386679,0.2859306286480434,0.3828651532532361,0.548613049003988,0.5173277304026755,0.37621023349562766,0.19241020340780138,0.3772502446565408,0.18776788780329584,0.4218345985467565,0.4789415549008293,0.2740968946433028,0.31285882425947426,0.40036950671869403,0.5344745785740873,0.09159751644909914,0.7774768166956505,0.05749078831361096,0.538478262374254,0.5280345935652727,0.05043098414957703,0.6467951399949287,0.6353845955970915,0.5678453472177573,0.2504432037734318,0.3490202563735091,0.3227649990984444,0.22144131705453382,0,0.592536509559279,0.17800307664194176,0.040502004821681974,0.35116145077280475,0.5594639286365534,0.43232520005998326,0.25234271622493376,0.6118253521894529,0.5641298640755862,0.45080871320022153,0.2669061701261247,0.36170997270126715,0.25478499685501743,0.6859778409878066,0.4954752392364969,0.2905135007059608,0.10440496454995582,0.5412136781333965,0.31681539783111223,0.3034265103108567,0.3215924954750134,0.2799449697637159,0.6095284010507909,0.2840400459918327,0.3469713871265881,0.45779041066169923,0.5234630470835703,0.46896244001864695,0.2946202931021466,0.5985875623157403,0.2701063259535409,0.18514786765723593,0.1299227967433227,0.29860491640008013,0.31558395858120464,0.5386104045252047,0.6562009223233076,0.2743706051353779,0.591668222313484,0.030568344676211574,0.10059135214370186,0.28590599402906774,0.4444646941507007,0.5580113361592904,0.28417225023156706,0.5823913652392276],[0.5961326053667921,0.1356233460634129,0.08387044776596558,0.6254659137702724,0.6665441777294028,0.8005323138797821,0.041011138858401554,0.3971792964956665,0.5449159813649029,0.5960589017038005,0.7420258023040399,0.0385413973036789,0.6680085817460057,0.16890740760611958,0.48878744446794736,0.7911026907656956,0.7433283800590293,0.040502004821681974,0.14055754193390427,0.7145408715087983,0.40526737100121646,0.6643541019595692,0.6198146240129383,0.6592387406048583,0.5523715728838189,0.7654748377071662,0.6177913225430054,0.7331015856617876,0.2262165118258536,0.5897245482039501,0.348925693414209,0.6312647583314626,0.5612554142022069,0.06471064097169182,0.6478617837422934,0.21323932441165222,0.1928142710690211,0.2505973626909146,0.5693544273262438,0.8384768488217106,0.8604616222080436,0.3665363108358849,0.592536509559279,0,0.5791106632003274,0.6368788900788868,0.42154022299050653,0.16694520087952247,0.7662270255961446,0.5942073758916134,0.13076542058032847,0.09201307313243563,0.6980207234105273,0.46132685702565407,0.49607989235896977,0.5595169498370248,0.2637258616576494,0.5161623055267186,0.4613063288162695,0.7023333636197204,0.05387513598933945,0.6349580841439205,0.5593196858298992,0.8228675210847272,0.6678270402342288,0.20269099028703438,0.3158782945594932,0.6306395863965757,0.7897245183315453,0.5766313319611933,0.7422310325232505,0.29793917742441206,0.18789147518256522,0.31609049671056383,0.5518816440426835,0.7224975902539388,0.5653738398876479,0.5216660757079913,0.1141381373468579,0.48746234728439786,0.649369739923356,0.11354920391600604,0.6271920083931251,0.699455530263579,0.8181825561095183,0.38992030728717475,0.0315933213068597,0.4856509760028231,0.1624912975432411],[0.05606580637346361,0.625617847353265,0.506427783363095,0.10672054481409766,0.18492216262338793,0.45456019966062156,0.5669815314807156,0.8083135937055502,0.11144948679948362,0.7115782478244203,0.5967059908252683,0.5344279788044832,0.0859734278872557,0.5412487431465435,0.46614657495070677,0.46334193447956723,0.56640772425516,0.5322466108187865,0.5484897777023278,0.5582154342378738,0.27188026823188727,0.5540379819293265,0.03436745776425189,0.5948025606909226,0.6279511372354291,0.4546461117072171,0.1288355116880543,0.5826766660045692,0.5939215575512644,0.2723327545585204,0.836897181352715,0.23844327317459194,0.6835189903233456,0.5083898807943292,0.20968045526219645,0.6922211082289523,0.6766060932678853,0.6325677396298741,0.06810680597702097,0.5264400275061393,0.48760327726012626,0.2362125424133225,0.17800307664194176,0.5791106632003274,0,0.17854899772684366,0.4746395295918737,0.6001032600241306,0.6154314902427899,0.06804233632293212,0.63798243705953,0.5224291729638563,0.6267713511327907,0.4033562597266024,0.5067155593781981,0.07478342837522901,0.5970799902178718,0.6351601512306748,0.42732890680547175,0.240998543093732,0.520362172211488,0.13429027657846665,0.46724756451475785,0.4979014011742245,0.1126553004735425,0.656821904542519,0.2611678539350883,0.16293841594307384,0.6412243502487643,0.6731126753471209,0.6485053342925008,0.28346094344461065,0.6427699111068073,0.2915626254099576,0.0218839314070938,0.2757096494399313,0.11756461086189444,0.4696688458384167,0.4932607247098098,0.7714272302027084,0.10069227066701916,0.6146435309696817,0.20093864431715489,0.22372658459930664,0.4556342508207489,0.31287762017172005,0.5413517336406414,0.42910176784969206,0.6205233426184241],[0.23736738945962707,0.6431247774959474,0.5830839989933775,0.2827146785378693,0.024944483073168378,0.269632798540418,0.6381090748469201,0.7711556208470641,0.2946202931021466,0.597596841808972,0.43033464122590775,0.5927869357980208,0.21036257657557916,0.5479552852976796,0.36020385245548076,0.2786300352223206,0.3962503911362779,0.592536509559279,0.5639194651418034,0.39309037677747416,0.23922632762999563,0.40047276147927763,0.1782112369475656,0.4476477840468073,0.5150932456538199,0.27112016016454266,0.30895536984600264,0.4164789455031032,0.5812998328029912,0.1194384899682467,0.8241329015325166,0.062201901903915696,0.5753784209762638,0.5715701692710674,0.024944483073168378,0.6936849451592859,0.6822566465553357,0.6145353016554509,0.2530283173351286,0.34163615526541274,0.3047099353095669,0.26454215832812183,0.040502004821681974,0.6368788900788868,0.17854899772684366,0,0.39408655348641014,0.6062989862780119,0.44649649901528493,0.250387123038545,0.6584016102655732,0.6055875223512497,0.4740528573207644,0.30862027900946937,0.40010977887582094,0.2591597506516742,0.721297919045935,0.5340439325649942,0.33178593589805855,0.06644500574821649,0.5847044328666884,0.3104096483158341,0.3360041018897726,0.3130054030407708,0.2658678285462348,0.6564182417445801,0.32453953854794954,0.34263821032366576,0.47094528469832553,0.5591032526334695,0.48853531853009724,0.33670092155366377,0.6454690467700915,0.31482638994050366,0.19216253255335175,0.09782961889033802,0.3024215805412865,0.3518589385191394,0.5794897493705504,0.6986252981123942,0.26325893274506484,0.638114661235024,0.024168809575286537,0.05749078831361096,0.27124987116621896,0.4688892165558678,0.6019506510004126,0.32366800650759264,0.6292061549328462],[0.5291024703834687,0.3443464255509712,0.42732890680547175,0.5792869175612712,0.42340957338599566,0.42307436150183597,0.45158243406681736,0.38162991644200556,0.5326586552896059,0.24390677340870837,0.3146881183401953,0.39301826770626674,0.5571303164211779,0.2561416528874786,0.06498020973519031,0.4071435320578637,0.31927904779383526,0.3970692496212929,0.2840193836428029,0.28929428790487044,0.20038218656658682,0.23685480100610626,0.5051765372777819,0.23295534484488678,0.16658478304532492,0.3791849233450159,0.5919691573009525,0.30638739789118935,0.2424689636630416,0.28138320699483377,0.4554263972382261,0.34577724040329544,0.21114188913295276,0.39025933239681504,0.38374287345944474,0.35720260274363386,0.354459184704899,0.2600260810689802,0.5207880589244259,0.4404297733024073,0.4849333513440165,0.26995870722994075,0.35116145077280475,0.42154022299050653,0.4746395295918737,0.39408655348641014,0,0.2953251799110295,0.33871339432590913,0.5367464406809739,0.3616284539674429,0.4565399204481371,0.27262970316816604,0.08084114085697607,0.0693371497096637,0.5178682669007377,0.6404807982935693,0.15903775288943595,0.06110834623785862,0.426639348335389,0.4009680200082327,0.6035445735636891,0.13911300330613685,0.43213640328495334,0.593679604930467,0.3229363237273374,0.31184596769504336,0.6221885499198375,0.3618664380852888,0.2084270673843536,0.31589691437380685,0.29320153819947053,0.3193195822744288,0.24323939027004107,0.4617039026186372,0.4279704018463675,0.552835320067101,0.09834654537864941,0.44674553019728386,0.29873867654298425,0.5811017116089525,0.3519795197423074,0.3678213738315867,0.435669033632306,0.44520942191133556,0.5507561884725433,0.40386851509179633,0.08042740410761114,0.3172384340754722],[0.633168508974551,0.043213453732538286,0.22788225271960424,0.6725472523186253,0.6375725559490273,0.7134963376366971,0.21241263655641235,0.24313840739374365,0.5994835701377188,0.4301284876859041,0.6114719332254748,0.16714587799011338,0.6924632904589724,0.052992407846648965,0.366655364964032,0.7000928531004119,0.6197245401711716,0.1734960566533586,0.0494938774014658,0.5891686233852788,0.36068805262937537,0.5340994474443826,0.6397828251872248,0.5194591558463969,0.395829893551589,0.6727080923953609,0.672221920750545,0.6045138615538148,0.05684877549986597,0.5285889889926492,0.23426550905416893,0.5824708557707594,0.39645302741307376,0.18562973506285746,0.6090605720630089,0.08580435123877923,0.07065693812035577,0.07740252790708334,0.6116370166859342,0.7388181810167744,0.7753564965197295,0.35958786364886597,0.5594639286365534,0.16694520087952247,0.6001032600241306,0.6062989862780119,0.2953251799110295,0,0.6347278746139188,0.6348457971370176,0.060249398685565544,0.24976942462105256,0.5559171939602406,0.3586159020587704,0.36282984277390035,0.6037432752248794,0.435182798467682,0.3554157765013214,0.35066433176277223,0.6613988663764315,0.18747714734104248,0.688279428191772,0.44072244893609624,0.7279993343819151,0.7065879375168429,0.05217838341530412,0.3383654537836452,0.692447834526355,0.6558530629140283,0.4145217977519135,0.6009199662736747,0.3138609825654154,0.036658842573618504,0.30325989447452434,0.5762751035629848,0.6741997921970064,0.6213956897644066,0.4000595850506416,0.2596609419425502,0.3145535266317488,0.689356646510778,0.05635339195465357,0.5891202575705834,0.663483949851821,0.7339855558424606,0.4984437194675148,0.17399574443059354,0.37463859483237505,0.01705706972675149],[0.6778350121849547,0.6843169918444655,0.765157580157381,0.7274255029729529,0.45883378780169165,0.2444862874170598,0.7945085266176991,0.64340003504314,0.7171431208563649,0.30501840349538784,0.018108480086140542,0.7360413657464664,0.6629910787221314,0.6003802327602377,0.27140112411777995,0.22148872166362643,0.04407698449764426,0.7397259407034726,0.6286016367800296,0.05411364484244222,0.4389688996462729,0.09550044246289822,0.6261626087857569,0.11565213113347168,0.2675597064724374,0.20532632636292447,0.7506546391723964,0.029879964754855055,0.5764398605205916,0.33679185881337254,0.7453235172734781,0.3782905639156078,0.31166866918075115,0.7308585361777312,0.4174739509553435,0.6825911751582872,0.684344792262354,0.5837351469588099,0.6852199334120428,0.19903703289874317,0.28238238620208056,0.5242303454213004,0.43232520005998326,0.7662270255961446,0.6154314902427899,0.44649649901528493,0.33871339432590913,0.6347278746139188,0,0.6898067194080117,0.7013352537130222,0.7942927137857066,0.09287524381613517,0.31059522342479345,0.26618062697081873,0.6879407262399033,0.9704236831184542,0.3143178552259753,0.3035659337581417,0.4205518832169459,0.7422743160873592,0.7553216538264017,0.20502567237466174,0.2151652951655858,0.7172476132424932,0.6524955254522576,0.5892814616808523,0.7847523209888645,0.020669232546290335,0.2834402398103574,0.06324383143857905,0.5803187856728188,0.6523370377679492,0.5290822991877466,0.6184063002779606,0.3956060454168669,0.7311759026723038,0.23920678169705065,0.780924829968891,0.4955828394869499,0.7127240413292016,0.6940979720522352,0.4