"trial_id","rt","stimulus","response","trial_type","trial_index","plugin_version","time_elapsed","language","participant_number","success","raw_payload","placements","dissimilarity_vector","n_words","trial_category","distance_matrix","value"
"consent_form","1991","
    <div style=""max-width:800px; margin:0 auto; text-align:left; font-size: 16px; padding: 10px 0;"">
      <h1>Informed Consent Form</h1>
      <p>You are being invited to participate in a research study titled <strong>""Reproducibility of Psychological Science and Instruction.""</strong> This study is being done by Dr. Bria Long from UC San Diego and associated graduate students in the Experimental Methods course. You were selected to participate in this study because you are an adult in the U.S. and have been a represented population in previous psychology studies.</p>
      
      <p>The purpose of this study is to better understand how well previously published studies in the psychological field replicate online and with different populations. Your participation in this research should last approximately <strong>5-30 minutes</strong>. If you agree to take part in this study, you may be asked to view a set of stimuli, including pictures, sounds, written text, or videos and then giving some responses via key-presses, verbally, or with paper-and-pencil. We may also observe your choices or preferences among an array of stimuli. These stimuli will be taken directly from or closely adapted from studies that already exist in the published psychological literature. Stimuli will include, e.g., pictures of objects and human faces, audio and video clips, short text passages, etc. None of the stimuli will be disturbing, threatening, or offensive. The online and in-person experiments described in this protocol will take no more than 30 minutes. An example game you might play would be to click on an image on the screen that matches a word you hear being said out loud. Your total expected time commitment for this study is between 5-30 minutes, and is specified in the study description.</p>
      
      <p>Your participation in this study is completely voluntary and you can withdraw at any time. Choosing not to participate or withdrawing will result in no penalty or loss of benefits to which you are entitled. You are free to skip any question that you choose.</p>
      
      <p>We will not be asking for any personally identifying information, and we will handle responses as confidentially as possible. Your SONA or Prolific IDs will never be tied to your responses on this survey. However, we cannot guarantee the confidentiality of information transmitted over the Internet. To minimize this risk, data containing anything that might be personally identifying (e.g. Prolific IDs or IP addresses) will be encrypted on transfer and storage and will only be accessible to qualified lab personnel. We will be keeping data collected as part of this experiment indefinitely. This anonymized data (containing neither Prolific IDs nor IP addresses) may be shared with the scientific community or with other participants to be used as stimuli in future studies.</p>
      
      <p>If you have questions about this project or if you have a research-related problem, you may contact the researcher(s), <strong>Dr. Bria Long, <a href=""mailto:brlong@ucsd.edu"">brlong@ucsd.edu</a></strong>. If you have any questions concerning your rights as a research subject, you may contact the UC San Diego Office of IRB Administration at <a href=""mailto:irb@ucsd.edu"">irb@ucsd.edu</a> or 858-246-4777.</p>
      
      <h3 style=""margin-top: 25px;"">Consent Statement</h3>
      <p style=""font-weight: bold;"">By participating in this research you are indicating that you are at least 18 years old, have read this consent form, and agree to participate in this research study. Please keep this consent form for your records.</p>
    </div>
  ","0","html-button-response","0","2.1.0","1996","en","89ay6pmsd5_7utam1","","","","","","","",""
"","2049","
    <div style=""display:flex; align-items:center; justify-content:center; height:100vh; font-family:sans-serif;"">
      <div style=""max-width:900px; margin:0 auto; text-align:center;"">
        <h1 style= ""font-size: 24px;"">Welcome! Thank you for participating in the study.</h1>
        <p style=""font-size:18px; line-height:1.6;"">
          In this task, you will be presented with <strong>90 words</strong> arranged <strong>outside a circle</strong>.<br>
          Your job is to <strong>drag these words into the circle</strong> and <strong>rearrange them</strong> based on their <strong>meaning similarity</strong>.<br><br>
          Words that are <strong>similar in meaning</strong> should be placed <strong>closer together</strong>.<br>
          Words that are <strong>different in meaning</strong> should be placed <strong>farther apart</strong>.<br><br>
          You can place the words <strong>anywhere inside the circle</strong>. There is no single correct answer — 
          we are interested in <strong>your personal judgment</strong> of how these words relate to each other.<br><br>
          <strong>You must move all words into the circle before you can finish.</strong><br>
          After the initial arrangement, you will arrange words from specific categories.
        </p>
        <p style=""font-size:16px; margin-top:30px;""><em>Press any key to continue.</em></p>
      </div>
    </div>
  ","j","html-keyboard-response","1","2.1.0","4047","en","89ay6pmsd5_7utam1","","","","","","","",""
"","1327","<p style='font-size:20px;'>Which is your first language or primary language of use?</p>","1","html-button-response","2","2.1.0","5381","en","89ay6pmsd5_7utam1","","","","","","","",""
"","1518","","","fullscreen","3","2.1.0","7913","en","89ay6pmsd5_7utam1","true","{""placements"":[{""word"":""proud"",""x"":135.2,""y"":201.3,""cx"":158.1,""cy"":218.8,""angle_rad"":-2.542,""angle_deg"":214.4},{""word"":""refrigerator"",""x"":365.8,""y"":412.3,""cx"":405.1,""cy"":429.8,""angle_rad"":0.966,""angle_deg"":55.4},{""word"":""rabbit"",""x"":161.6,""y"":500.3,""cx"":184.1,""cy"":517.8,""angle_rad"":2.35,""angle_deg"":134.7},{""word"":""agreement"",""x"":289.6,""y"":600.3,""cx"":328.1,""cy"":617.8,""angle_rad"":1.652,""angle_deg"":94.7},{""word"":""lips"",""x"":545.6,""y"":348.3,""cx"":561.1,""cy"":365.8,""angle_rad"":0.075,""angle_deg"":4.3},{""word"":""scissors"",""x"":339.8,""y"":268.3,""cx"":370.1,""cy"":285.8,""angle_rad"":-1.267,""angle_deg"":287.4},{""word"":""giraffe"",""x"":119.7,""y"":503.3,""cx"":144.1,""cy"":520.8,""angle_rad"":2.449,""angle_deg"":140.3},{""word"":""system"",""x"":629.9,""y"":424.3,""cx"":657.1,""cy"":441.8,""angle_rad"":0.29,""angle_deg"":16.6},{""word"":""fault"",""x"":59.8,""y"":397.3,""cx"":78.1,""cy"":414.8,""angle_rad"":2.908,""angle_deg"":166.6},{""word"":""friendship"",""x"":148.7,""y"":229.3,""cx"":184.1,""cy"":246.8,""angle_rad"":-2.585,""angle_deg"":211.9},{""word"":""method"",""x"":357.7,""y"":572.3,""cx"":386.1,""cy"":589.8,""angle_rad"":1.421,""angle_deg"":81.4},{""word"":""ant"",""x"":233.3,""y"":484.3,""cx"":248.1,""cy"":501.8,""angle_rad"":2.162,""angle_deg"":123.9},{""word"":""depressed"",""x"":128.4,""y"":332.3,""cx"":166.1,""cy"":349.8,""angle_rad"":-3.141,""angle_deg"":180.1},{""word"":""sofa"",""x"":457.8,""y"":393.3,""cx"":476.1,""cy"":410.8,""angle_rad"":0.449,""angle_deg"":25.7},{""word"":""violence"",""x"":355.4,""y"":27.3,""cx"":386.1,""cy"":44.8,""angle_rad"":-1.453,""angle_deg"":276.8},{""word"":""chopsticks"",""x"":306.4,""y"":320.3,""cx"":344.1,""cy"":337.8,""angle_rad"":-2.019,""angle_deg"":244.3},{""word"":""concept"",""x"":354.6,""y"":537.3,""cx"":384.1,""cy"":554.8,""angle_rad"":1.406,""angle_deg"":80.5},{""word"":""sparrow"",""x"":204.2,""y"":517.3,""cx"":234.1,""cy"":534.8,""angle_rad"":2.131,""angle_deg"":122.1},{""word"":""chair"",""x"":392.9,""y"":373.3,""cx"":413.1,""cy"":390.8,""angle_rad"":0.574,""angle_deg"":32.9},{""word"":""business"",""x"":588.4,""y"":500.3,""cx"":621.1,""cy"":517.8,""angle_rad"":0.554,""angle_deg"":31.8},{""word"":""magic power"",""x"":505.4,""y"":177.3,""cx"":550.1,""cy"":194.8,""angle_rad"":-0.66,""angle_deg"":322.2},{""word"":""result"",""x"":406.9,""y"":525.3,""cx"":429.1,""cy"":542.8,""angle_rad"":1.181,""angle_deg"":67.7},{""word"":""hostility"",""x"":405.7,""y"":35.3,""cx"":434.1,""cy"":52.8,""angle_rad"":-1.295,""angle_deg"":285.8},{""word"":""dispute"",""x"":548.5,""y"":447.5,""cx"":576.1,""cy"":464.9,""angle_rad"":0.47,""angle_deg"":26.9},{""word"":""relationship"",""x"":213.3,""y"":50.5,""cx"":254.1,""cy"":67.9,""angle_rad"":-1.898,""angle_deg"":251.2},{""word"":""pencil"",""x"":374.8,""y"":439.5,""cx"":398.1,""cy"":456.9,""angle_rad"":1.148,""angle_deg"":65.8},{""word"":""anger"",""x"":526.2,""y"":425.3,""cx"":549.1,""cy"":442.8,""angle_rad"":0.436,""angle_deg"":25},{""word"":""team"",""x"":277.5,""y"":179.3,""cx"":298.1,""cy"":196.8,""angle_rad"":-1.897,""angle_deg"":251.3},{""word"":""washing machine"",""x"":367,""y"":445.3,""cx"":426.1,""cy"":462.8,""angle_rad"":0.977,""angle_deg"":56},{""word"":""thigh"",""x"":556.9,""y"":309.3,""cx"":577.1,""cy"":326.8,""angle_rad"":-0.102,""angle_deg"":354.2},{""word"":""charity"",""x"":286.5,""y"":417.3,""cx"":312.1,""cy"":434.8,""angle_rad"":1.991,""angle_deg"":114.1},{""word"":""finger"",""x"":566.6,""y"":333.3,""cx"":589.1,""cy"":350.8,""angle_rad"":0.003,""angle_deg"":0.2},{""word"":""characteristic"",""x"":37.8,""y"":227.3,""cx"":84.1,""cy"":244.8,""angle_rad"":-2.765,""angle_deg"":201.6},{""word"":""cat"",""x"":206.7,""y"":493.3,""cx"":221.1,""cy"":510.8,""angle_rad"":2.246,""angle_deg"":128.7},{""word"":""eye"",""x"":577.8,""y"":341.3,""cx"":594.1,""cy"":358.8,""angle_rad"":0.036,""angle_deg"":2.1},{""word"":""bed"",""x"":359.4,""y"":483.3,""cx"":376.1,""cy"":500.8,""angle_rad"":1.399,""angle_deg"":80.2},{""word"":""computer mouse"",""x"":319,""y"":247.3,""cx"":376.1,""cy"":264.8,""angle_rad"":-1.273,""angle_deg"":287.1},{""word"":""microwave"",""x"":394.6,""y"":439.3,""cx"":433.1,""cy"":456.8,""angle_rad"":0.909,""angle_deg"":52.1},{""word"":""reason"",""x"":311.7,""y"":620.3,""cx"":338.1,""cy"":637.8,""angle_rad"":1.612,""angle_deg"":92.4},{""word"":""hammer"",""x"":347.4,""y"":303.3,""cx"":378.1,""cy"":320.8,""angle_rad"":-0.804,""angle_deg"":313.9},{""word"":""spoon"",""x"":309,""y"":297.3,""cx"":333.1,""cy"":314.8,""angle_rad"":-2.018,""angle_deg"":244.4},{""word"":""fate"",""x"":571.4,""y"":179.3,""cx"":588.1,""cy"":196.8,""angle_rad"":-0.572,""angle_deg"":327.2},{""word"":""arm"",""x"":513,""y"":331.3,""cx"":530.1,""cy"":348.8,""angle_rad"":-0.007,""angle_deg"":359.6},{""word"":""rat"",""x"":191.9,""y"":540.3,""cx"":205.1,""cy"":557.8,""angle_rad"":2.18,""angle_deg"":124.9},{""word"":""excited"",""x"":178.9,""y"":204.3,""cx"":206.1,""cy"":221.8,""angle_rad"":-2.414,""angle_deg"":221.7},{""word"":""ear"",""x"":516.9,""y"":345.3,""cx"":532.1,""cy"":362.8,""angle_rad"":0.07,""angle_deg"":4},{""word"":""society"",""x"":205.3,""y"":388.3,""cx"":232.1,""cy"":405.8,""angle_rad"":2.699,""angle_deg"":154.7},{""word"":""toothbrush"",""x"":482,""y"":605.3,""cx"":520.1,""cy"":622.8,""angle_rad"":1.013,""angle_deg"":58.1},{""word"":""process"",""x"":374.6,""y"":611.3,""cx"":404.1,""cy"":628.8,""angle_rad"":1.379,""angle_deg"":79},{""word"":""splendor"",""x"":306.2,""y"":81.3,""cx"":338.1,""cy"":98.8,""angle_rad"":-1.618,""angle_deg"":267.3},{""word"":""air conditioner"",""x"":353.1,""y"":428.3,""cx"":402.1,""cy"":445.8,""angle_rad"":1.072,""angle_deg"":61.4},{""word"":""tortoise"",""x"":194.1,""y"":481.3,""cx"":222.1,""cy"":498.8,""angle_rad"":2.281,""angle_deg"":130.7},{""word"":""status"",""x"":652.4,""y"":241.3,""cx"":676.1,""cy"":258.8,""angle_rad"":-0.273,""angle_deg"":344.4},{""word"":""trauma"",""x"":434.3,""y"":53.3,""cx"":461.1,""cy"":70.8,""angle_rad"":-1.192,""angle_deg"":291.7},{""word"":""death"",""x"":387.6,""y"":173.3,""cx"":410.1,""cy"":190.8,""angle_rad"":-1.21,""angle_deg"":290.7},{""word"":""happy"",""x"":150,""y"":207.3,""cx"":174.1,""cy"":224.8,""angle_rad"":-2.523,""angle_deg"":215.4},{""word"":""identity"",""x"":148.9,""y"":424.3,""cx"":176.1,""cy"":441.8,""angle_rad"":2.656,""angle_deg"":152.2},{""word"":""marriage"",""x"":220.4,""y"":45.3,""cx"":253.1,""cy"":62.8,""angle_rad"":-1.896,""angle_deg"":251.4},{""word"":""error"",""x"":481.3,""y"":235.3,""cx"":501.1,""cy"":252.8,""angle_rad"":-0.572,""angle_deg"":327.3},{""word"":""ankle"",""x"":531.3,""y"":311.3,""cx"":553.1,""cy"":328.8,""angle_rad"":-0.104,""angle_deg"":354},{""word"":""tiger"",""x"":170.4,""y"":507.3,""cx"":189.1,""cy"":524.8,""angle_rad"":2.315,""angle_deg"":132.6},{""word"":""apathy"",""x"":166,""y"":616.3,""cx"":192.1,""cy"":633.8,""angle_rad"":2.078,""angle_deg"":119.1},{""word"":""disease"",""x"":386.9,""y"":181.3,""cx"":416.1,""cy"":198.8,""angle_rad"":-1.158,""angle_deg"":293.6},{""word"":""broom"",""x"":368.2,""y"":376.3,""cx"":393.1,""cy"":393.8,""angle_rad"":0.793,""angle_deg"":45.4},{""word"":""sad"",""x"":151.8,""y"":292.3,""cx"":168.1,""cy"":309.8,""angle_rad"":-2.924,""angle_deg"":192.5},{""word"":""key"",""x"":141.2,""y"":312.3,""cx"":157.1,""cy"":329.8,""angle_rad"":-3.037,""angle_deg"":186},{""word"":""heaven"",""x"":573.1,""y"":152.3,""cx"":601.1,""cy"":169.8,""angle_rad"":-0.622,""angle_deg"":324.3},{""word"":""obligation"",""x"":234.1,""y"":272.3,""cx"":269.1,""cy"":289.8,""angle_rad"":-2.502,""angle_deg"":216.7},{""word"":""data"",""x"":374.4,""y"":587.3,""cx"":393.1,""cy"":604.8,""angle_rad"":1.403,""angle_deg"":80.4},{""word"":""loving heart"",""x"":220.9,""y"":45.3,""cx"":262.1,""cy"":62.8,""angle_rad"":-1.868,""angle_deg"":253},{""word"":""content"",""x"":320.1,""y"":149.3,""cx"":348.1,""cy"":166.8,""angle_rad"":-1.581,""angle_deg"":269.4},{""word"":""phenomenon"",""x"":491.2,""y"":156.3,""cx"":537.1,""cy"":173.8,""angle_rad"":-0.755,""angle_deg"":316.7},{""word"":""cabinet"",""x"":412.5,""y"":445.3,""cx"":440.1,""cy"":462.8,""angle_rad"":0.897,""angle_deg"":51.4},{""word"":""miracle"",""x"":521.5,""y"":149.3,""cx"":549.1,""cy"":166.8,""angle_rad"":-0.744,""angle_deg"":317.4},{""word"":""fear"",""x"":124,""y"":300.3,""cx"":141.1,""cy"":317.8,""angle_rad"":-2.989,""angle_deg"":188.8},{""word"":""knee"",""x"":517.9,""y"":304.3,""cx"":538.1,""cy"":321.8,""angle_rad"":-0.149,""angle_deg"":351.5},{""word"":""comfortable"",""x"":319.5,""y"":112.3,""cx"":361.1,""cy"":129.8,""angle_rad"":-1.52,""angle_deg"":272.9},{""word"":""debt"",""x"":581.4,""y"":499.3,""cx"":600.1,""cy"":516.8,""angle_rad"":0.588,""angle_deg"":33.7},{""word"":""elephant"",""x"":181.2,""y"":543.3,""cx"":213.1,""cy"":560.8,""angle_rad"":2.147,""angle_deg"":123},{""word"":""effect"",""x"":651.1,""y"":321.3,""cx"":673.1,""cy"":338.8,""angle_rad"":-0.035,""angle_deg"":358},{""word"":""discipline"",""x"":374.3,""y"":625.3,""cx"":408.1,""cy"":642.8,""angle_rad"":1.375,""angle_deg"":78.8},{""word"":""television"",""x"":386.9,""y"":469.3,""cx"":421.1,""cy"":486.8,""angle_rad"":1.091,""angle_deg"":62.5},{""word"":""shoulder"",""x"":552.2,""y"":317.3,""cx"":584.1,""cy"":334.8,""angle_rad"":-0.065,""angle_deg"":356.3},{""word"":""nose"",""x"":545.9,""y"":285.3,""cx"":566.1,""cy"":302.8,""angle_rad"":-0.215,""angle_deg"":347.7},{""word"":""ax"",""x"":395.7,""y"":296.3,""cx"":408.1,""cy"":313.8,""angle_rad"":-0.557,""angle_deg"":328.1},{""word"":""scenery"",""x"":168.6,""y"":113.3,""cx"":198.1,""cy"":130.8,""angle_rad"":-2.177,""angle_deg"":235.3},{""word"":""panda"",""x"":143.6,""y"":520.3,""cx"":168.1,""cy"":537.8,""angle_rad"":2.34,""angle_deg"":134.1},{""word"":""fraud"",""x"":77.1,""y"":403.3,""cx"":98.1,""cy"":420.8,""angle_rad"":2.868,""angle_deg"":164.3},{""word"":""table"",""x"":343.9,""y"":441.3,""cx"":364.1,""cy"":458.8,""angle_rad"":1.442,""angle_deg"":82.6}],""n_words"":89,""words"":[""proud"",""refrigerator"",""rabbit"",""agreement"",""lips"",""scissors"",""giraffe"",""system"",""fault"",""friendship"",""method"",""ant"",""depressed"",""sofa"",""violence"",""chopsticks"",""concept"",""sparrow"",""chair"",""business"",""magic power"",""result"",""hostility"",""dispute"",""relationship"",""pencil"",""anger"",""team"",""washing machine"",""thigh"",""charity"",""finger"",""characteristic"",""cat"",""eye"",""bed"",""computer mouse"",""microwave"",""reason"",""hammer"",""spoon"",""fate"",""arm"",""rat"",""excited"",""ear"",""society"",""toothbrush"",""process"",""splendor"",""air conditioner"",""tortoise"",""status"",""trauma"",""death"",""happy"",""identity"",""marriage"",""error"",""ankle"",""tiger"",""apathy"",""disease"",""broom"",""sad"",""key"",""heaven"",""obligation"",""data"",""loving heart"",""content"",""phenomenon"",""cabinet"",""miracle"",""fear"",""knee"",""comfortable"",""debt"",""elephant"",""effect"",""discipline"",""television"",""shoulder"",""nose"",""ax"",""scenery"",""panda"",""fraud"",""table""],""distance_matrix"":[[0,0.5121164648037456,0.4725041573446081,0.6865068642662463,0.6789243205232225,0.34787338071816476,0.4760223682047579,0.8673112846558408,0.330831331217485,0.05288928643084285,0.689315965186515,0.4674384073727638,0.2019376097552014,0.5867952222685214,0.4511671967143435,0.3454294686825525,0.6404124473937423,0.5123679209365621,0.484451616140087,0.8746670139984298,0.6208661478748526,0.6683844954147121,0.5076638160173019,0.7687899429996223,0.2782039869667666,0.5332905643578449,0.713601834996321,0.21871779572187885,0.5723265582052954,0.6848870321410814,0.41666982536388836,0.7138293381887925,0.11733264599972724,0.47024622291838114,0.7253087247031201,0.5627168362169921,0.3486183920123556,0.5743321284082217,0.7222674162800978,0.38017141340519983,0.311452869369954,0.6814703988004563,0.6229919551196501,0.5399747454987979,0.06872381081566034,0.6337312935521026,0.3138677186599106,0.8607353596120366,0.7576904962450611,0.3382572705844208,0.5255905349172076,0.45182585692049226,0.8240232093278342,0.5319178366433231,0.39788311540186616,0.01905019373467088,0.3501001885711715,0.2842940979412748,0.5438812766604693,0.6485765391318078,0.48442036371483055,0.6587657131310168,0.40625119195973314,0.46108675575692437,0.13834094142570663,0.16951218807890078,0.7057247629836534,0.20277212620742294,0.7156680612678022,0.29204614019572983,0.30726375161546476,0.6031281247466496,0.5891024370190493,0.6236035273673837,0.15260138437120627,0.6224326913593238,0.3467800385061823,0.8457025884531767,0.5466260801862923,0.8388483950735036,0.7802435664387116,0.5932403776642413,0.6990109916250996,0.6590330642241755,0.42013732333786635,0.1465381033720369,0.5029892203429399,0.32926876944470973,0.4983880077170739],[0.5121164648037456,0,0.3727708444855037,0.3171490265062499,0.2618136301071015,0.22909034001482928,0.43450405542668963,0.39585611012355976,0.5161057190084418,0.45136266047866513,0.24980804607135,0.26838923311121876,0.3954526662934926,0.109424145972169,0.6092262791585951,0.16852079217684707,0.19474053897445226,0.3131539510026429,0.05545600254031782,0.3653404773403716,0.4340633358689468,0.17674728408379456,0.5974432708616718,0.2713416828136792,0.6199121108619553,0.03651522582212399,0.2233119038155836,0.40243854756163694,0.054339600758111,0.31286240605434423,0.14088266146933312,0.31247860115630555,0.5852362417693375,0.31375617221599506,0.31512790070388746,0.11454423989753129,0.26006926754331183,0.053990484904714614,0.3417682694598894,0.1715784772701483,0.20904400410595936,0.46632847521527215,0.23030345861358759,0.3720933800235102,0.4528538259313424,0.22171635513308688,0.27148843938695616,0.3516044094691044,0.31049227396378426,0.5327177783929598,0.017753809415209872,0.30500283311360066,0.5050456869042262,0.5737768210319897,0.37465533816149926,0.4864710087930364,0.3590540957300922,0.6280717771503338,0.31426578395378946,0.27873285775541007,0.3697143912382032,0.4641795589624961,0.36217425033569967,0.05246855640220484,0.4172642784541309,0.4200744194952737,0.5133134921662771,0.3043714430705248,0.272696633595514,0.6226950986265862,0.4228037411664087,0.4531181085194848,0.06874046487792042,0.47204487062182776,0.4511113346505488,0.2661540904683399,0.4774404827417114,0.33376253028311453,0.364050336471922,0.4451084811963954,0.33295125150244836,0.08652195919079722,0.31633180869111904,0.32019841826137113,0.17757752447458103,0.5742902784434983,0.4089325317336959,0.483724483823926,0.07212961351689734],[0.4725041573446081,0.3727708444855037,0,0.2725458935384964,0.6429021794030281,0.4680611026733392,0.05593708196409328,0.7591784238340872,0.22846248191462484,0.42583820258057953,0.33523742865406286,0.09736269132301997,0.2623641422754038,0.4899009043252823,0.8156693260718538,0.3775063981816342,0.3175273304144661,0.07628135568610891,0.41119314901241716,0.6917839296849435,0.7737215612214429,0.3862222335623504,0.837483939745982,0.6253828825557439,0.7211230143679527,0.3481320076453986,0.5886511662846793,0.5374105109724493,0.3892647563006201,0.6917124372188419,0.23607937080610808,0.6935140210090176,0.4574612551703628,0.05200236450965581,0.6961913648242598,0.30047705000392727,0.5005034278597676,0.402388556414722,0.304453513791972,0.4346286530996918,0.39509971961382745,0.8183500148677793,0.6085838127383173,0.06405176818802705,0.467198276862078,0.6020000160830756,0.18689136530546374,0.5556455860750203,0.38645310533277755,0.7068507565339013,0.35948350890676956,0.059738743021578035,0.8824447366017637,0.834159104048693,0.6284991442927245,0.4613573352183188,0.114104780192447,0.7289556598132938,0.6536151225757657,0.6558757149636592,0.005455429102563255,0.1779568146861677,0.6236035273673837,0.3810062580038097,0.32589143580989133,0.29595565093144827,0.8618171001089842,0.3815069649941212,0.35436068796622755,0.7312549272642619,0.6123583424708626,0.7813315600816351,0.41116561657762707,0.8029448040071189,0.31941229995850434,0.6399375056628018,0.6749071225968014,0.6581421187009268,0.07476614787091203,0.8259298010863432,0.40263532858965906,0.3746017199405943,0.6963880679060233,0.6939435936152915,0.47705990377485236,0.61208535772923,0.03270713076715799,0.19935834147784143,0.2951447942951884],[0.6865068642662463,0.3171490265062499,0.2725458935384964,0,0.5415243509047979,0.5278044885816489,0.3249108440344605,0.5894395930591753,0.5076066088466317,0.6292483603255961,0.09485587847644202,0.2174253791533369,0.49337897624338634,0.3993495399729852,0.9143579890145553,0.44098873059336774,0.12671520459857705,0.19257394035664718,0.38000621195673273,0.4876704184750152,0.7570150384986422,0.19321808781407313,0.91264284211173,0.4584339523863569,0.8806001847995315,0.2727870844828823,0.44329632897198096,0.6678608781554087,0.2854671049447893,0.6052568236243226,0.2859733746206783,0.589853798373562,0.7057517213586112,0.23410230948550184,0.5864695130269627,0.1942786707476357,0.5624133631172277,0.29961559117428116,0.02749745074941728,0.4741880146092258,0.4771709367910179,0.7844069091568984,0.5306145059775907,0.21092511623678714,0.6555239714215848,0.5148488534177107,0.3645153014682966,0.29937795438305137,0.11470080936243499,0.8233090394481668,0.29165281462673814,0.2469886795990933,0.7926911077682494,0.8935453239718499,0.6882629587000577,0.6679064261861645,0.3642398367030968,0.8889116196713296,0.6387922570382821,0.5784517522395135,0.25960984980425006,0.2110596998559154,0.6775916106836135,0.36534391176102843,0.547723438991169,0.5282758397059175,0.8321688830189178,0.5255905349172075,0.09787145457769071,0.88709470782459,0.7149231964034157,0.7778655746762229,0.29804043098014066,0.7962989917049313,0.5580253202770807,0.5731128421603972,0.775275677855993,0.456512502440922,0.19730283825675873,0.7025112218952024,0.12595279109918664,0.24905624305588658,0.6030420669434412,0.6241800168119829,0.4952886848285399,0.7992077022400612,0.2782630573106681,0.4768404066595691,0.25285258364711255],[0.6789243205232225,0.2618136301071015,0.6429021794030281,0.5415243509047979,0,0.3234287195705507,0.7044007529106622,0.18783571811787042,0.7694515285008756,0.6250336360521249,0.44707407632465906,0.5384160537189366,0.6250153996945357,0.145757172199747,0.5774010096724607,0.3422078751121567,0.4065173216445961,0.5813838713646763,0.23214101480312535,0.2534758702281043,0.26619616680382846,0.3454149574151735,0.5328316204770988,0.1522485997524416,0.6770083859077881,0.2908311963473234,0.11652322427695741,0.4925136444361236,0.25799564671744685,0.05920875202870433,0.4056254237485942,0.04256356548362167,0.7800710410113736,0.5838487213690247,0.045718859719681544,0.3585822100814837,0.32935238994936483,0.2432823970766655,0.5551720771514396,0.29358881601326664,0.36597530881640405,0.2658593753238056,0.04831596949546834,0.6396761393331563,0.6054220331747333,0.03838212825313023,0.5226403498552247,0.4086156212534456,0.48238730191886386,0.5490005763219177,0.2768310110779519,0.5750827147130182,0.2433282975612859,0.49070390749553755,0.36198022748977154,0.6515490751800441,0.6203784816676475,0.6838643691112062,0.1966464838961502,0.05232061133808346,0.6398048556218764,0.7223095726005268,0.3459985664824815,0.26453627284907916,0.627652194431948,0.6414797970815278,0.31215440824988167,0.47506756776253645,0.45970409306840393,0.6736606558900432,0.45867471475938704,0.30166747926789633,0.2401257767700121,0.3110673706819138,0.6689285521215335,0.0712152219859825,0.4872743903891894,0.2415267941716751,0.6307602221742566,0.17624734727418842,0.49864627315028587,0.2881283621047793,0.053515014723558824,0.09292237691724407,0.25056262298227494,0.6844592535805493,0.678952330141439,0.7386533312962524,0.3406852184666682],[0.34787338071816476,0.22909034001482928,0.4680611026733392,0.5278044885816489,0.3234287195705507,0,0.5140141766565008,0.5150058201645783,0.5030996426330684,0.2961411680998242,0.47938102609513655,0.38910656381734415,0.3342049172975288,0.25424434478867847,0.37862568491790227,0.08481530367770317,0.42321730087684073,0.44621658602390624,0.17345194357265833,0.5392604075915474,0.3148063658014045,0.41411963836407584,0.3787848452429581,0.42899486040771334,0.38715273252193666,0.2694363552359871,0.3731242653960142,0.1750755284157028,0.28909646427560054,0.32974740689038534,0.24783173588532362,0.3576576531924106,0.45455371714318643,0.42401651947913993,0.3691164511354467,0.3362556734990856,0.026663806848233374,0.28363111154490833,0.557932407964865,0.049192800700645314,0.06698872076351042,0.3689123912943649,0.2671621488197035,0.5013501590209735,0.27371315924697764,0.2790366997000317,0.28465788196571973,0.5826425551607831,0.5438812766604691,0.29561805688717746,0.2530834219823515,0.4072066081122862,0.4838157600722257,0.36570435043491634,0.15681269681577203,0.3205380957178754,0.39049907844192705,0.3951251675370815,0.20810324643180442,0.29283977279395745,0.47198342108338265,0.6178975677882949,0.14933859166894023,0.16857883665186787,0.3175706496955098,0.34012217476737894,0.40579589986211223,0.15361099262178066,0.504064822605824,0.3886316081180067,0.1855522774678675,0.3138199177705732,0.2966128843329939,0.33603586829285004,0.36211536128539273,0.26693379266127765,0.24201427263730776,0.5139158916862566,0.49899042253976494,0.48447505415836567,0.566848254731844,0.32389645665685757,0.34339206585958854,0.30686091480621314,0.06729481114335184,0.3626138903784665,0.5090944199287959,0.47816117977098865,0.269000739216551],[0.4760223682047579,0.43450405542668963,0.05593708196409328,0.3249108440344605,0.7044007529106622,0.5140141766565008,0,0.8232303352857151,0.19172254265185965,0.43529740442577214,0.3948292362264341,0.1610481086876392,0.2678879029744472,0.5519997812096752,0.8471619493691853,0.4259800612673036,0.38001282136400066,0.13759529781173013,0.4703213015161479,0.7558823512591514,0.8258528826326681,0.44962570473635877,0.8737276236610941,0.6895436803690362,0.7383516011819573,0.4112824946128636,0.6524411416807835,0.5663996067308247,0.4529178240296827,0.7518194029506235,0.29403904899048505,0.7548522468670383,0.44417637020116163,0.11607012355839644,0.7579049090979572,0.3647355268323306,0.5451695981156556,0.4658929761286183,0.3546259716018162,0.4848342976179529,0.439561217847123,0.8722539944586267,0.6686935429351971,0.10597315832163277,0.4808864732571529,0.6628451085162734,0.2236662092450006,0.6158284323349382,0.44272195879710424,0.7357717884293805,0.4221215424602394,0.1215116981754256,0.9417344952516119,0.8735311850282766,0.6707301070109617,0.46831964584826946,0.1282272619364375,0.745921325553152,0.7068435787807963,0.7155333329965564,0.06405176818802705,0.1883649240940956,0.6669625754591357,0.43948384790544,0.3318929425283833,0.2983795429501859,0.9148543963448521,0.4124637933019711,0.4126802749571079,0.7493894685923261,0.6462417282152539,0.8315961081503974,0.4749082509413701,0.8534409088555618,0.3169320916389193,0.6988386104280526,0.7080932167704598,0.7222516070327994,0.11944930375113527,0.8879313170271865,0.4576017488384487,0.4387811753820601,0.7569865321394785,0.7526344026458945,0.5291361241012106,0.6224469333144506,0.03879245826329806,0.16801936555624405,0.357860975627519],[0.8673112846558408,0.39585611012355976,0.7591784238340872,0.5894395930591753,0.18783571811787042,0.5150058201645783,0.8232303352857151,0,0.920287689459673,0.8113297363659654,0.4863646574086676,0.6539388136043291,0.7919858597702989,0.2858730628090419,0.7617574650044394,0.5200818569830646,0.46502890943017544,0.6855402275979559,0.39102966022283747,0.1264012318206789,0.42292279179785364,0.3911838789742018,0.7100252343066421,0.12661642953917432,0.8723971115053284,0.4073178067716302,0.1647061404469553,0.6879920861923284,0.3632810089569935,0.2161083672586674,0.5445060812751245,0.17367066869604755,0.9624063548861604,0.6988749046981908,0.15861357681184607,0.4516752297442106,0.5237244662064531,0.35134403341221143,0.591497061902813,0.4788808107161978,0.5492008718105614,0.39945340841189997,0.2438580971053722,0.7392818664388456,0.7955953124169164,0.22857626923424718,0.6749972762652714,0.3553500928703741,0.4957013315751759,0.742108890291753,0.4002551378125745,0.6945372507687959,0.286430886183922,0.6638940218151294,0.5558480718547235,0.839988303144606,0.762275568194534,0.8791422912549575,0.3842886644201519,0.23771217857445187,0.7531486011611376,0.7976487795822174,0.539974745498798,0.4215576896313826,0.8031330260525366,0.8125657066950741,0.43657997370586316,0.6592791633462327,0.4887456054856725,0.8686820135633547,0.6543746742661823,0.46210812826187864,0.3409498661441076,0.46500450849396907,0.8418832442483786,0.2624257678538019,0.6806811149761892,0.14259304366095937,0.7281040001564792,0.15866738000802183,0.5043452610411402,0.37657728555755066,0.19919143469518225,0.25784140252638743,0.44021403183909835,0.8799300454270099,0.7900464303818111,0.8878697440119729,0.46187346363278836],[0.330831331217485,0.5161057190084418,0.22846248191462484,0.5076066088466317,0.7694515285008756,0.5030996426330684,0.19172254265185965,0.920287689459673,0,0.30992017053258347,0.5592024004777894,0.297621255764251,0.16694632542962862,0.629334906496419,0.7629464189384481,0.4353234392694812,0.5307835458338668,0.30698711097127174,0.5297470450811688,0.8771169394109473,0.8259636429593419,0.5902291253593838,0.8050838513753479,0.7935382030486378,0.6148728610410666,0.5087580129562854,0.7475869334723546,0.48786443444158445,0.5544770287852491,0.8034492673137414,0.36792795273158696,0.8167339363155673,0.26419743003859875,0.26760899266066507,0.8232025555674627,0.4885777608707855,0.5261646920616282,0.5643797026099702,0.5404403204350494,0.4953396471638177,0.43049532639421995,0.8802507286019797,0.7234942245112536,0.2980781286218023,0.36269691343597366,0.7237747498428185,0.2388154952562742,0.7742842192222961,0.6164285297873454,0.6472682685292583,0.5131191006774686,0.25875592168351896,0.9817816359076464,0.8164352370845642,0.6333074113498472,0.33271802797068856,0.15452768524605898,0.6214553319172651,0.7173535910721904,0.7650351357104543,0.24203477722248157,0.3872195417057161,0.6343066856177852,0.49745005567259676,0.21323088191012096,0.17758442756705498,0.9169427790258726,0.3573770229624989,0.5810246869055656,0.6280052272031897,0.5790157496485012,0.8222296800630138,0.5767038534440465,0.8444649836866946,0.17697597101568427,0.743542312423995,0.6351329102885366,0.8437769834647285,0.31024663709985645,0.9526576932703127,0.6342747329082911,0.5531643517463004,0.8123968484351276,0.7938166149676378,0.544568755014752,0.485614360276535,0.2358482245623665,0.025126261412667994,0.4552601654897875],[0.05288928643084285,0.45136266047866513,0.42583820258057953,0.6292483603255961,0.6250336360521249,0.2961411680998242,0.43529740442577214,0.8113297363659654,0.30992017053258347,0,0.6294013176851222,0.4128753180007851,0.1591891403282433,0.5282160465132782,0.4493425814251749,0.28656582530978836,0.5800199851003751,0.4599754714174848,0.4250571497898707,0.815477737055166,0.5839245669144681,0.6072593443233549,0.49864121038678083,0.710349607241932,0.29944555362170966,0.4721330503338051,0.6554099046603591,0.19110574133791638,0.5113514885558272,0.6342048308165309,0.35604812187118956,0.6615685359101903,0.1519141004595601,0.4187573083813767,0.6725947476826517,0.5017805450349252,0.3006224698860073,0.5135225666954524,0.6649241455911357,0.3243211014697825,0.25406833292850894,0.6438533023089384,0.5695794637078797,0.49105610027593416,0.045025792376359536,0.5793565087545789,0.2577594239325728,0.7995302458246896,0.6979070248958004,0.3338600545137552,0.4645596487003608,0.39996292476337614,0.7801328940903565,0.5174523391684982,0.3646942444802561,0.030389870344938185,0.3043427132286533,0.3065024049217098,0.49962496832617903,0.5972631699276504,0.4371248117020504,0.6118122528198174,0.3712287889345132,0.4010364878055982,0.09580916774022447,0.13150542038825364,0.671036198472148,0.1442842579434139,0.6558042217479049,0.31184992876038237,0.2840088907593033,0.5691751613849679,0.5282925806059354,0.5903148813443061,0.12465630697177271,0.571399762272034,0.3315948174431064,0.7862099025237407,0.49686866697677307,0.7888367205534005,0.7205633183464882,0.532050846688963,0.647831789982114,0.6102105132077719,0.36624949730928347,0.17886397562234252,0.45858402082609173,0.3026264465072993,0.4372256345135382],[0.689315965186515,0.24980804607135,0.33523742865406286,0.09485587847644202,0.44707407632465906,0.47938102609513655,0.3948292362264341,0.4863646574086676,0.5592024004777894,0.6294013176851222,0,0.25388730873292975,0.513274127588664,0.3126545687018684,0.8648088605721201,0.40096751293899935,0.047838159909754756,0.25064192423016257,0.3134093347146988,0.3854375606731917,0.6768727799643955,0.09373035848173736,0.8554222315043765,0.35594952713048367,0.8541295476306477,0.20545676620444017,0.34332273264464686,0.6368836330003986,0.20499156954128156,0.5124122829436611,0.2668451954084113,0.4940487109242903,0.7262405003644401,0.28475423094162006,0.48967418214795433,0.13515637593290547,0.5125970839751866,0.2176640112546011,0.10042677217559969,0.4228245773999033,0.4403542055840693,0.6995931480775767,0.44144834413225664,0.2861477485550723,0.6479882378509384,0.42407291400922725,0.37608017290128637,0.21276700892965,0.06048879266724836,0.7820463149494521,0.2237934056593114,0.29215293318066826,0.696701222478195,0.8317916592032518,0.6320601337644236,0.6679140172263579,0.40326876081661367,0.8624436875259041,0.5621457233278229,0.48808681275705884,0.32402004565494347,0.3103714926080143,0.6199292493094161,0.3058821970944388,0.5601852012418242,0.5467463178460378,0.7475869334723545,0.5075568583242431,0.018192979950876056,0.8590281057918081,0.6720838011855518,0.70068724939025,0.21276700892964992,0.7179281126020072,0.5781520447727723,0.4852816843219017,0.7297194005359368,0.35391811684921465,0.2727012002138253,0.602506557184299,0.0836087744429095,0.16595506082825695,0.5088984427644472,0.5344205379082378,0.4352511164861891,0.7863213434870354,0.35072622386367447,0.5266470835852808,0.204485619730813],[0.4674384073727638,0.26838923311121876,0.09736269132301997,0.2174253791533369,0.5384160537189366,0.38910656381734415,0.1610481086876392,0.6539388136043291,0.297621255764251,0.4128753180007851,0.25388730873292975,0,0.26836604343571124,0.38496796331372746,0.756478269971527,0.2961200922966223,0.22551750568723472,0.0491034854169023,0.31026677839459504,0.5898001610066596,0.6815987581460244,0.2889972061426255,0.770287629893012,0.5204717835249022,0.6868839312982273,0.24252131967324447,0.4830772407285657,0.4868313959318892,0.2836091325996538,0.5886855608213357,0.1401152053258019,0.5891496932766985,0.4800988597584139,0.03726986546896327,0.591471387101373,0.19674663546444324,0.4232054054165539,0.29670124991334057,0.25294592583088543,0.34869388600896173,0.32076045291268507,0.7234328452596087,0.5056727573554513,0.10478809215479491,0.44527543533398095,0.498238558778283,0.14759520991486175,0.468613030171275,0.31394737105321413,0.6532175607619788,0.25420035288686516,0.03360430942251037,0.780173584259388,0.7618907724312978,0.5534659679751326,0.45101355969181084,0.14182578271205432,0.6950337109812177,0.5603793010014894,0.5534408394745909,0.09312497558757284,0.22139256365989365,0.5467278214398588,0.2813319386253599,0.3249069928963934,0.3034219603263005,0.76803618940138,0.3329775731791367,0.27661941163826137,0.6953456445145386,0.5517729921037002,0.6920331796486893,0.30555527969087065,0.7131910812834923,0.3326766329416172,0.5384982008947797,0.6145379133091254,0.5561186977753826,0.10157713251497352,0.7209188871136355,0.33333835157193165,0.26987396469296815,0.5927964831739305,0.5926683757581465,0.387177361407112,0.5914200342011214,0.13221945887476594,0.26478543018142503,0.18987285517735522],[0.2019376097552014,0.3954526662934926,0.2623641422754038,0.49337897624338634,0.6250153996945357,0.3342049172975288,0.2678879029744472,0.7919858597702989,0.16694632542962862,0.1591891403282433,0.513274127588664,0.26836604343571124,0,0.4978431930737852,0.5941612673703762,0.27749181090321706,0.4710928561041647,0.307446689369894,0.3928027954631368,0.7687235371165134,0.6551004723619162,0.5143015540940121,0.6325729525330509,0.6739203079321879,0.46479463561806583,0.4010503127328619,0.6231017160012803,0.31540947729544905,0.4458550531415673,0.6511599977390771,0.2623309534598088,0.6693566656894684,0.20511185700819518,0.2642445167292364,0.6775167676360613,0.4060561280290018,0.3546259716018162,0.4525002850957925,0.5290955305400011,0.3344783115614859,0.26503436041682354,0.710816218097096,0.5748340937256475,0.33071401036686504,0.2065201901571555,0.5784058216137722,0.13034420704098312,0.7078692671103748,0.5791927069296271,0.4791520438115112,0.39984975387194155,0.24668691262704598,0.8216407686460172,0.6421785537439458,0.45825407609611657,0.1923438433952722,0.1399335408930562,0.4721330236232256,0.550417214871092,0.6125919386067916,0.2744493302790604,0.44856800314835393,0.45958342994725776,0.36211536128539273,0.055837154537299476,0.026810209220620447,0.7458872952547734,0.1826444689595583,0.5386249180496182,0.4765122981329007,0.40516323533826465,0.6495370151073531,0.46650959005920034,0.6717159084552049,0.056730976048584396,0.5893343864320812,0.46265613264043487,0.7366766976947279,0.33799797654444697,0.8041208712785574,0.6004926195904742,0.45543176676803016,0.6617754023294167,0.6369154565157893,0.38364420448058617,0.3462556292510306,0.2928823819791177,0.1491757147669911,0.35377637984909843],[0.5867952222685214,0.109424145972169,0.4899009043252823,0.3993495399729852,0.145757172199747,0.25424434478867847,0.5519997812096752,0.2858730628090419,0.629334906496419,0.5282160465132782,0.3126545687018684,0.38496796331372746,0.4978431930737852,0,0.5955038393572947,0.23333350955859117,0.26543780332356137,0.42731068578430986,0.09756891376039002,0.28037780665777323,0.35746825140227373,0.2161541072244124,0.5691529387680183,0.17382439501097868,0.646109199023604,0.13682999978528412,0.11936892914901204,0.4376171867776507,0.10724604387851326,0.20213282949628233,0.2572138641701771,0.1966464838961502,0.6736794732139958,0.43049532639421995,0.19826171924902214,0.20721197516247797,0.275183589751236,0.09255412976466676,0.41727633996712127,0.20484111475618152,0.26760899266066507,0.37863563435610426,0.1233957807573321,0.4855987710966098,0.5196834031149387,0.1098375735977092,0.3826640351530717,0.33855336929533925,0.35948350890676944,0.5382352864721649,0.12281969873361741,0.4223331694347365,0.3941251286471609,0.5369117516243922,0.3596509488469619,0.5599052197538206,0.474857789663538,0.6538457928657467,0.24795194610345314,0.1718849529964556,0.4864165389887514,0.570167640425714,0.3446559137800734,0.12740717017710557,0.510968577847886,0.5189561787822483,0.42662080335805014,0.3758063196813018,0.32972842625346604,0.646178986566403,0.43310499588985873,0.3837424139643533,0.09299839889084899,0.3997019557447735,0.5486688944851392,0.16544623085526913,0.47810050289708855,0.25302450391782344,0.4767345894489647,0.32770276077007515,0.37899364391493945,0.14197100982936497,0.20324578183889405,0.21690177773346223,0.18145805299247939,0.6238045464080206,0.5254174460158773,0.597472929409234,0.18689136530546385],[0.4511671967143435,0.6092262791585951,0.8156693260718538,0.9143579890145553,0.5774010096724607,0.37862568491790227,0.8471619493691853,0.7617574650044394,0.7629464189384481,0.4493425814251749,0.8648088605721201,0.756478269971527,0.5941612673703762,0.5955038393572947,0,0.465882151183779,0.808742248956202,0.8135968645100792,0.5476795862223011,0.8378313265180005,0.34774005023211757,0.7924795985836133,0.06963450129205019,0.7303433934471465,0.20636249782107977,0.6521719189868419,0.6807053281514895,0.27305716810182795,0.6644035579422917,0.5373352557557848,0.6276340331623387,0.5799785397502413,0.5719816710988344,0.7836618773373426,0.5950871320708694,0.7223991467062959,0.34449590704108246,0.6560128831008603,0.9448160575787825,0.43403432576739104,0.4324911471676576,0.3966808045485804,0.5305835492750002,0.8631979428190849,0.3961132144968115,0.5522653971664612,0.6204519618601066,0.942236857091125,0.9277343934675696,0.10742357432295727,0.6346201373400729,0.7650202007490231,0.569081820646308,0.1188452560360271,0.22871707309604844,0.4372256345135382,0.7112015743044328,0.20669334506686185,0.37244742973360506,0.5194986517677151,0.8229200757334174,0.9851678862104879,0.24303234739333182,0.5509131084799572,0.5414216466512899,0.5774010096724607,0.39010631513568417,0.4266444071465675,0.8889101893532326,0.19241417878252248,0.19638962186079553,0.3098475769160273,0.6669093615124974,0.31785798642090657,0.5793434062887481,0.4978736167835661,0.1336186809479475,0.8219484149083988,0.8635733539022497,0.649903656167151,0.9503673585660719,0.7020109545069319,0.5542398323580726,0.4956656840823698,0.42407291400922736,0.32288283723238115,0.8552736413807174,0.7504591248417075,0.6558718506622521],[0.3454294686825525,0.16852079217684707,0.3775063981816342,0.44098873059336774,0.3422078751121567,0.08481530367770317,0.4259800612673036,0.5200818569830646,0.4353234392694812,0.28656582530978836,0.40096751293899935,0.2961200922966223,0.27749181090321706,0.23333350955859117,0.465882151183779,0,0.34518269612514196,0.353152076810908,0.13106419406272637,0.5209166637151482,0.3934261757722427,0.3472134474296981,0.47049286553347575,0.41547965927753183,0.44748253657266374,0.20117825123242183,0.3606748606105834,0.22928485519776393,0.2311784575687341,0.365374820126591,0.15531381596143828,0.38473621922133905,0.43406043494439817,0.331745799517165,0.3936050191129008,0.25779800524009616,0.11936892914901204,0.22974349653186055,0.4723947160402031,0.05257401140554235,0.03251904724941249,0.4431570686802707,0.2901818263341663,0.4085879186023063,0.28049335759855715,0.29551670553052034,0.20158942487665482,0.5283141038528637,0.46768650483981794,0.37469219633433914,0.18807109682117515,0.31529846226291997,0.5384160537189366,0.4586966985150877,0.24982793161589867,0.31870670958744085,0.30822198183071947,0.45574159532671915,0.2776982781931136,0.3268193832324498,0.38079853927273594,0.5247606400615699,0.2424649862522958,0.11088640111352703,0.27718632489533446,0.2915372841995561,0.4835757976817061,0.13433113792709045,0.4265735919377933,0.4514157005894169,0.2657048742276271,0.3974310849193246,0.24417849272093164,0.4193608626787198,0.3184711742539727,0.3035330880243087,0.326018125748262,0.4921214490405439,0.4060220598306807,0.5187614335682733,0.49095072556657576,0.2603751096479514,0.37620367696237894,0.3517291805242311,0.10117939693096771,0.39749433625131453,0.4184897903262059,0.4076140780616045,0.18815602538910225],[0.6404124473937423,0.19474053897445226,0.3175273304144661,0.12671520459857705,0.4065173216445961,0.42321730087684073,0.38001282136400066,0.46502890943017544,0.5307835458338668,0.5800199851003751,0.047838159909754756,0.22551750568723472,0.4710928561041647,0.26543780332356137,0.808742248956202,0.34518269612514196,0,0.23411289657709886,0.2584915148058944,0.37596664768814864,0.6267859296390145,0.06628682749981764,0.7998987094484796,0.33132291836388633,0.7990529150256845,0.15011329130753626,0.3111637889612893,0.5815361865730487,0.15369814295952972,0.4702462229183811,0.2158738034719183,0.45500818400002696,0.6828011997390161,0.26216020379700467,0.45188163225242045,0.07913048761218433,0.4564545216739134,0.167209717262114,0.14370291472551558,0.3666843598057666,0.3847590733014708,0.6518018525432747,0.39618618965383123,0.278486867781828,0.5966016339311578,0.3800524754455581,0.33267663294161715,0.2352746676144536,0.11448155622000811,0.7259312050587008,0.16866586767253886,0.2662803001334802,0.657801204804621,0.776833256291002,0.5763176485967878,0.6183318735579625,0.3709074431264019,0.8073604728635432,0.5105433397166839,0.44378198291586723,0.30775541050143107,0.32429409476992066,0.5643147149593793,0.2500118003388062,0.5149469631523307,0.5037240837358407,0.6997037218163777,0.4544788535957397,0.07306526996694794,0.8037701262605653,0.6159517871185134,0.6494453229103284,0.16422337944155385,0.6671544909326801,0.5354811701743545,0.43912547939204927,0.6735552692794988,0.34303795818305705,0.26579852165075535,0.5697060277125292,0.1378062179485241,0.11569817356368672,0.46800722184864574,0.4896819130124937,0.3796855205601601,0.7334432700278788,0.3387937635186192,0.4976682212432105,0.14877595269773217],[0.5123679209365621,0.3131539510026429,0.07628135568610891,0.19257394035664718,0.5813838713646763,0.44621658602390624,0.13759529781173013,0.6855402275979559,0.30698711097127174,0.4599754714174848,0.25064192423016257,0.0491034854169023,0.307446689369894,0.42731068578430986,0.8135968645100792,0.353152076810908,0.23411289657709886,0,0.3597241798674195,0.6122777003858608,0.735316332260504,0.30434271322865336,0.8277153926554371,0.5509131314278154,0.740372151436598,0.28254958715211553,0.5174132844858322,0.5427995535543172,0.320190605454426,0.6343326460244636,0.19485426293201474,0.6322685159012941,0.5147482718420915,0.03540214014071143,0.6336593332832894,0.22559981121439812,0.4804114316606383,0.3341037435749618,0.2261751410509097,0.40491176165716447,0.3781743747344388,0.7758110352594679,0.5517432048948041,0.050972498139027815,0.49512811975399573,0.5429113135448304,0.19836729711675224,0.47106876381955554,0.30289046918601564,0.70977865505811,0.2962591656476055,0.05246855640220475,0.8265110752851949,0.8192313098943182,0.6107331397690133,0.4975363184231857,0.1672681951265139,0.7484692368258526,0.6138369909824243,0.6000371409399471,0.06552615574953273,0.1639628709122299,0.6038706572698591,0.3321380395631689,0.36733058536283175,0.34250429752817224,0.820918356600385,0.38816903045284673,0.26999848754171657,0.7491861986830295,0.6088812185176394,0.7467460907343764,0.34128039402010885,0.767731976036749,0.3699078396519249,0.5863573069607703,0.6716706155939474,0.5787447487534458,0.045217879405315825,0.7619024357334158,0.31976843760456336,0.30097534781452534,0.6374939730831088,0.6405627731385113,0.4423035163123938,0.6414797970815277,0.09752042698079173,0.2759791545212757,0.23292425434214864],[0.484451616140087,0.05545600254031782,0.41119314901241716,0.38000621195673273,0.23214101480312535,0.17345194357265833,0.4703213015161479,0.39102966022283747,0.5297470450811688,0.4250571497898707,0.3134093347146988,0.31026677839459504,0.3928027954631368,0.09756891376039002,0.5476795862223011,0.13106419406272637,0.2584915148058944,0.3597241798674195,0,0.3821122248616599,0.37478600113686716,0.2365357677156555,0.5342218820356854,0.27853075890503176,0.5683020804794291,0.10026392199322906,0.22494055386253714,0.352981625128063,0.10888888949595654,0.2737131592469776,0.1681721244600306,0.2808308571284251,0.5683278744167952,0.35441022230591,0.2861477485550722,0.17760513530672575,0.20205964332153187,0.10215943679132207,0.4052284072569953,0.11705659594986394,0.16845546936180664,0.4102468324592364,0.19082884629494248,0.4190216559623775,0.4197927366357834,0.187527992406593,0.2826448259334031,0.4009831900656869,0.3732419996217541,0.47466652013676447,0.08153335274562117,0.34320227929623176,0.46311367743656917,0.5100756700003728,0.3121263761823888,0.4578688454409267,0.3800590840655299,0.5763439888493679,0.2538873087329298,0.23697562106841175,0.40985113464707906,0.5179036984289027,0.29931121632360547,0.024073910002434487,0.40507942777465966,0.41328948488159467,0.456512502440922,0.2734627873212037,0.33601350736108604,0.5701676404257141,0.3653439117610285,0.39208230452583825,0.11486759746368386,0.411505057084071,0.44286135338670646,0.22041843926676577,0.41803552740100636,0.3529247900281249,0.4122014268411642,0.416464440303047,0.3954780919738933,0.14600683487419686,0.2799463040266561,0.27444479189222704,0.11529396483765136,0.5321838240031628,0.4494154813913765,0.4986133642837176,0.12595279109918664],[0.8746670139984298,0.3653404773403716,0.6917839296849435,0.4876704184750152,0.2534758702281043,0.5392604075915474,0.7558823512591514,0.1264012318206789,0.8771169394109473,0.815477737055166,0.3854375606731917,0.5898001610066596,0.7687235371165134,0.28037780665777323,0.8378313265180005,0.5209166637151482,0.37596664768814864,0.6122777003858608,0.3821122248616599,0,0.5215007302360555,0.30187026671414924,0.7946257475562204,0.10293967563175654,0.9218466605980359,0.36202115398003526,0.15823646781199768,0.7212285483302237,0.3162685564347062,0.30568608749464604,0.5042651514297956,0.2640890997630713,0.95678468317494,0.6326049900823809,0.25005153853434503,0.385127819769997,0.555902662321809,0.308323319410279,0.4841390026383162,0.49284151982683017,0.5561732620713272,0.5086527462441576,0.29918187011606784,0.6612140328825583,0.8083290616313658,0.27802114551899815,0.6402007455057528,0.22508355097098598,0.3821680982680993,0.8017163339761443,0.36100510963642946,0.6316291286385805,0.41586584099613155,0.7522987217990316,0.6151495447723795,0.8479386586852017,0.7149231964034158,0.9291988416580224,0.457725678668061,0.31346916095416816,0.6838643691112062,0.7036495077748334,0.5991695231711323,0.40747521271159554,0.7902650120213007,0.7937398169184456,0.5501185481191351,0.6635713067436001,0.3826377761330797,0.9201992379312949,0.7040693659057554,0.5589830150447718,0.29474278692135697,0.5657136815089515,0.8247567932371256,0.33267663294161715,0.7399407455976669,0.0253556524570987,0.648943715968553,0.29030217861619323,0.3873395687128816,0.315916490546665,0.290787393973771,0.3472134474296981,0.464179558962496,0.9101828849817274,0.718124229708944,0.8438522840732868,0.41411963836407595],[0.6208661478748526,0.4340633358689468,0.7737215612214429,0.7570150384986422,0.26619616680382846,0.3148063658014045,0.8258528826326681,0.42292279179785364,0.8259636429593419,0.5839245669144681,0.6768727799643955,0.6815987581460244,0.6551004723619162,0.35746825140227373,0.34774005023211757,0.3934261757722427,0.6267859296390145,0.735316332260504,0.37478600113686716,0.5215007302360555,0,0.5819385447075798,0.28542778892670373,0.42639653296830476,0.5076329995512983,0.4770821388481597,0.3889935306246858,0.39541134614777856,0.46476314258743745,0.20752731144339012,0.5331777430383651,0.24929048313783075,0.7425294620938021,0.722506269943565,0.26370724530613665,0.5556251059372594,0.29214866219002067,0.4513710356398506,0.7784790961738338,0.33325946385889127,0.38894184759648964,0.05263719684747585,0.24046645444755435,0.7939861846178045,0.5444851884495834,0.2623641422754039,0.6030840478728511,0.6790475543060266,0.7252667407306291,0.36451530146829664,0.4584960583666633,0.708146954272812,0.21808384633082029,0.23620535848308852,0.21605689865213,0.5959712297428439,0.7097304013880185,0.5123703855916665,0.11331608192002178,0.20640666812933822,0.7752560247551619,0.8992009647713455,0.20644849901534928,0.3977630445025681,0.630800382443598,0.657404215132524,0.08266870490965067,0.4668905167076777,0.6950391846915525,0.4992281541174473,0.31838869677150317,0.03124231631442369,0.4557913699107811,0.036560707587124354,0.6759150398573498,0.19604454382746989,0.31187397714138027,0.5137266410247006,0.7887401220643899,0.29507712509087397,0.7445981176065303,0.5030996426330684,0.22248492944762135,0.16658718255513022,0.28849177044611973,0.5648523219520974,0.8141728120420456,0.8012884652812766,0.5090547343460363],[0.6683844954147121,0.17674728408379456,0.3862222335623504,0.19321808781407313,0.3454149574151735,0.41411963836407584,0.44962570473635877,0.3911838789742018,0.5902291253593838,0.6072593443233549,0.09373035848173736,0.2889972061426255,0.5143015540940121,0.2161541072244124,0.7924795985836133,0.3472134474296981,0.06628682749981764,0.30434271322865336,0.2365357677156555,0.30187026671414924,0.5819385447075798,0,0.7767351808277861,0.2582047459243462,0.8025160166664029,0.1379800858696134,0.24192710940726478,0.58439459267345,0.11993049363317049,0.41116255730665985,0.24676741872429875,0.3920790994500805,0.7220355130233308,0.32882751835691054,0.38762165101858354,0.100012969046179,0.44507451689918703,0.12960185473607116,0.20243140928376338,0.3566006604215881,0.3880071626209188,0.6017223962118908,0.34207605132586427,0.35134403341221143,0.6178606788966217,0.32392349567847495,0.37610020328230337,0.18579042500723755,0.13515637593290558,0.7177849666884327,0.15298371139994393,0.3307140103668652,0.5946722650730348,0.7495926839856909,0.5564278257476811,0.6447047876855854,0.428105348885336,0.8107376883280681,0.4703829644127424,0.3879164877520295,0.3772535284383667,0.39839459893055046,0.5431836336412541,0.23725274223672774,0.5521967154512383,0.5451533676890241,0.6497242615973317,0.4712534404048478,0.10653317816456614,0.8058865155513671,0.6078761177349786,0.6076428166414648,0.12104631009577108,0.6239912946936232,0.5771884430833506,0.3864563560836486,0.6622425322437474,0.268778529495126,0.3389231376303947,0.5012066162311636,0.1553765433325173,0.08230127559120609,0.407256019687346,0.43440841017533427,0.36009011662511653,0.7484014038596504,0.4098940967065278,0.5568367057222229,0.16183428308395295],[0.5076638160173019,0.5974432708616718,0.837483939745982,0.91264284211173,0.5328316204770988,0.3787848452429581,0.8737276236610941,0.7100252343066421,0.8050838513753479,0.49864121038678083,0.8554222315043765,0.770287629893012,0.6325729525330509,0.5691529387680183,0.06963450129205019,0.47049286553347575,0.7998987094484796,0.8277153926554371,0.5342218820356854,0.7946257475562204,0.28542778892670373,0.7767351808277861,0,0.6899878247336219,0.2810615954168342,0.6416393732107301,0.6430834527387614,0.30899942431764316,0.6486527256643306,0.4868313959318892,0.6341229358357783,0.5298138224866965,0.6312319460706692,0.8008968465156081,0.5448820172069555,0.7153968064066947,0.34379684495376617,0.6389171835753243,0.9414278159501033,0.43030519256962524,0.44152822898674443,0.3294511874930226,0.49020733055304666,0.8800225065065993,0.44635208674162535,0.512545346295404,0.6432567974353717,0.9151963032590819,0.9157242035071071,0.16221848656194568,0.6233760347679516,0.782817200484737,0.5008236376123567,0.04366131435651593,0.2160797750457239,0.49111263363741076,0.7394964090596923,0.28209298724710075,0.3295917341954805,0.4731975963617836,0.8436579949384427,1,0.22734881514397487,0.541918650387694,0.5842386807555688,0.619269111903864,0.3183494144609282,0.45432354243424056,0.8784594873184736,0.26769734475217566,0.22045209881028546,0.24624871514079774,0.6485980285355886,0.25109743597908263,0.6245958184476058,0.45372121858357084,0.16166073073265813,0.7811804040549678,0.8792116995171104,0.5887951801851057,0.9378199399261731,0.6872895379068553,0.503398165371036,0.444595915863276,0.4118869816575405,0.38988078423520833,0.877874635580203,0.790019103468939,0.6517163079657713],[0.7687899429996223,0.2713416828136792,0.6253828825557439,0.4584339523863569,0.1522485997524416,0.42899486040771334,0.6895436803690362,0.12661642953917432,0.7935382030486378,0.710349607241932,0.35594952713048367,0.5204717835249022,0.6739203079321879,0.17382439501097868,0.7303433934471465,0.41547965927753183,0.33132291836388633,0.5509131314278154,0.27853075890503176,0.10293967563175654,0.42639653296830476,0.2582047459243462,0.6899878247336219,0,0.8106076310520651,0.2771323816636486,0.04757270548802094,0.6104212968155039,0.2320097461409319,0.21292721299593487,0.41736380586296423,0.17565407022936974,0.8551770589508472,0.5651473657883633,0.16408357251250705,0.3172113586696303,0.44492450578973364,0.22113885023034513,0.4629650513311186,0.3840002931566682,0.44926128426868905,0.42162219722902883,0.1917431340910556,0.6043974557255809,0.7009417118178843,0.16978915033528086,0.5508644798531837,0.2600807907245508,0.3723065574012491,0.6912415227293869,0.2721106230406114,0.561405596751763,0.35867737007723116,0.6493864185628795,0.5050577108709096,0.7418386596919995,0.6335745897247099,0.8179717785419741,0.3520940125393831,0.2128088553787721,0.6190625691286964,0.6637531346896985,0.4891177859255965,0.3062055514146376,0.6909604257871427,0.6969778661943384,0.4661419087440361,0.557889368535036,0.3607131498753013,0.8090192816332238,0.5929301341600919,0.46220689797364034,0.2095830123671613,0.4712095794651921,0.7273480198288254,0.22887732523843302,0.629530115552997,0.08328168799946037,0.5931823698762664,0.24655205829671545,0.38368483345419835,0.2424629905584647,0.2004984349830071,0.25186509292864667,0.35367078516245537,0.7999031712756952,0.6556755338886427,0.7607215631673958,0.33145589245144774],[0.2782039869667666,0.6199121108619553,0.7211230143679527,0.8806001847995315,0.6770083859077881,0.38715273252193666,0.7383516011819573,0.8723971115053284,0.6148728610410666,0.29944555362170966,0.8541295476306477,0.6868839312982273,0.46479463561806583,0.646109199023604,0.20636249782107977,0.44748253657266374,0.7990529150256845,0.740372151436598,0.5683020804794291,0.9218466605980359,0.5076329995512983,0.8025160166664029,0.2810615954168342,0.8106076310520651,0,0.6562137543321844,0.7559444995788728,0.2098819841111442,0.6817419901428532,0.654862904496991,0.5867771295912804,0.6941416751395917,0.38473494588350926,0.7032030874513897,0.7085459366450079,0.712230694563205,0.36276819466242494,0.6775527120289138,0.914565219396462,0.44292224677023295,0.4069829781494848,0.5652355293836937,0.6225787782054877,0.7804502380116448,0.24994825619733912,0.6409621737221826,0.5341637141291141,0.9775341070247638,0.9218601812960864,0.13506520574320371,0.6418754763765591,0.683912219687582,0.733711058284696,0.32333745332956987,0.3098411636837429,0.2738296657102724,0.6035880347965037,0,0.4859805904353355,0.6274197111866539,0.7310355805372966,0.9037174069965526,0.3253488516660504,0.5592991971211,0.40298059210166776,0.4391128882726172,0.5710711794647328,0.3479872486766413,0.8801909487464353,0.006873327950745252,0.2102698012409317,0.4757674351975843,0.6910007991364685,0.4901409370253721,0.43106234270780497,0.601983635810758,0.18971486750788794,0.8996847550960411,0.7840675368581025,0.7910276665658033,0.9451835741862961,0.7141512926692387,0.6716359078974239,0.6173522310452348,0.45650645621300107,0.12659550542781225,0.7569966100971994,0.6098253327974893,0.6422511695162592],[0.5332905643578449,0.03651522582212399,0.3481320076453986,0.2727870844828823,0.2908311963473234,0.2694363552359871,0.4112824946128636,0.4073178067716302,0.5087580129562854,0.4721330503338051,0.20545676620444017,0.24252131967324447,0.4010503127328619,0.13682999978528412,0.6521719189868419,0.20117825123242183,0.15011329130753626,0.28254958715211553,0.10026392199322906,0.36202115398003526,0.4770821388481597,0.1379800858696134,0.6416393732107301,0.2771323816636486,0.6562137543321844,0,0.23464065940664705,0.4381119221744776,0.03751715869164668,0.3461905122456069,0.13392944418174618,0.3417140498475424,0.5987392870314017,0.28809896713489913,0.34281731840898433,0.07034257843958666,0.30144554403086365,0.047746915806720115,0.2970158339564441,0.21205894567225278,0.24201637443453752,0.507713581096986,0.2650137500895962,0.3405815468669223,0.47796859692068616,0.2539989224707526,0.26993489561204653,0.3215893012025848,0.2672395139515721,0.5733767817857359,0.010576331795851308,0.2815206613481563,0.5385629945749829,0.6184183095497551,0.4184212606996815,0.5084452030446049,0.3481579284179098,0.6644337172489798,0.35793740267282903,0.3138263314685233,0.3437363764695965,0.4266904603512895,0.4061756852422657,0.09308208378868703,0.42906997808150976,0.4281800610313196,0.5549953427363823,0.3298742081663002,0.2287571868841662,0.6595920588736994,0.46329061181195685,0.496943878954195,0.05962193308254027,0.515628342782148,0.45984887517505213,0.3033684814398218,0.5190569555276269,0.32922318754833263,0.3316031609528723,0.4711560524441799,0.2899315531649604,0.05210884534379502,0.348130567547214,0.3569023028798974,0.22149092167789375,0.604543632653509,0.3822824823466597,0.4757658445922049,0.04622958969060607],[0.713601834996321,0.2233119038155836,0.5886511662846793,0.44329632897198096,0.11652322427695741,0.3731242653960142,0.6524411416807835,0.1647061404469553,0.7475869334723546,0.6554099046603591,0.34332273264464686,0.4830772407285657,0.6231017160012803,0.11936892914901204,0.6807053281514895,0.3606748606105834,0.3111637889612893,0.5174132844858322,0.22494055386253714,0.15823646781199768,0.3889935306246858,0.24192710940726478,0.6430834527387614,0.04757270548802094,0.7559444995788728,0.23464065940664705,0,0.5547255216417296,0.1913179817290515,0.1828526773307861,0.3715836443845687,0.15239391081916545,0.8013661323190376,0.52833084355924,0.1443431111123878,0.28399572063301326,0.38934221537374036,0.17886397562234252,0.45196528257809454,0.3282065068370738,0.3939209940481905,0.39070817972609173,0.14531511000558747,0.5727706301971379,0.6453745763357441,0.12270221954664937,0.5029816906820412,0.28376734409193033,0.36951065432912417,0.6382029925104146,0.2272289868412726,0.5231814771820714,0.34985663395313893,0.6040970133868495,0.45274250373232455,0.68659551307726,0.5892527848674307,0.7633656123804751,0.3056329533973248,0.17442361199024975,0.5831960482308471,0.6403293576939951,0.43688274379783537,0.2536375838498187,0.6381890976424278,0.6452626653068344,0.4369058035542122,0.5028586905206937,0.3519821547971802,0.7545898775662151,0.5386788812569621,0.42306263430794777,0.169216073421366,0.4338486160475786,0.6753127204801906,0.1863251916771102,0.5766270716554309,0.13565637898292657,0.5622042099672135,0.2509539371238708,0.38371295370247466,0.20851791936608274,0.1735578111541341,0.21761289702183076,0.2978434901067349,0.74404737341841,0.6207559969363257,0.7150722307337594,0.2891654938791542],[0.21871779572187885,0.40243854756163694,0.5374105109724493,0.6678608781554087,0.4925136444361236,0.1750755284157028,0.5663996067308247,0.6879920861923284,0.48786443444158445,0.19110574133791638,0.6368836330003986,0.4868313959318892,0.31540947729544905,0.4376171867776507,0.27305716810182795,0.22928485519776393,0.5815361865730487,0.5427995535543172,0.352981625128063,0.7212285483302237,0.39541134614777856,0.58439459267345,0.30899942431764316,0.6104212968155039,0.2098819841111442,0.4381119221744776,0.5547255216417296,0,0.464600354482629,0.4847952620932776,0.3736285851342033,0.5191386871188748,0.3430379581830571,0.5096323553721177,0.532266918213836,0.4944827943929284,0.1574564551708003,0.46101840294067736,0.7010925798871495,0.22808822369355283,0.18886017156464735,0.45627777375517553,0.4360258034500467,0.5889090770284,0.1444103441084656,0.4513124063068393,0.3428077794363459,0.7612740320142419,0.7043035140051714,0.1612525619433618,0.42398980371302647,0.4905881694920628,0.6053530269993782,0.3217378226062567,0.1713643474367557,0.1953337306464859,0.430155952924125,0.21813485426625734,0.3290444121303854,0.4516947582716064,0.5454129974283105,0.7120856862046543,0.18074670248449495,0.3420650637716954,0.2676275954517596,0.30220519638772037,0.47902829597845553,0.1477432912815573,0.6628087779782051,0.21396529217015678,0.08509046383702185,0.3763404864987304,0.4747488815779619,0.39665862323544376,0.30923390241310333,0.42519926405363245,0.13901314937341908,0.6965974599215895,0.5905206456040212,0.6340849809631908,0.7276141547386974,0.496340012941267,0.5004201907622007,0.4533961372943941,0.24895151366145554,0.1836297760075713,0.5763374038974741,0.4727683154197492,0.42453270019437017],[0.5723265582052954,0.054339600758111,0.3892647563006201,0.2854671049447893,0.25799564671744685,0.28909646427560054,0.4529178240296827,0.3632810089569935,0.5544770287852491,0.5113514885558272,0.20499156954128156,0.2836091325996538,0.4458550531415673,0.10724604387851326,0.6644035579422917,0.2311784575687341,0.15369814295952972,0.320190605454426,0.10888888949595654,0.3162685564347062,0.46476314258743745,0.11993049363317049,0.6486527256643306,0.2320097461409319,0.6817419901428532,0.03751715869164668,0.1913179817290515,0.464600354482629,0,0.31724364369388897,0.17973946795435644,0.30851779670787666,0.6414323965486396,0.3289835437472264,0.30822198183071936,0.09228662666371917,0.31884402689219615,0.006444265285297426,0.3054898553422749,0.23181524705486123,0.2717084987820214,0.4906396119190514,0.23889337359268836,0.37706043726958555,0.5144562303583111,0.22513852653721497,0.3156155471346652,0.2889713072665315,0.25994491959125837,0.5916318365842378,0.03879245826329806,0.32354861584952477,0.5086179918571466,0.6221884935303289,0.4281935554863411,0.5469936480539465,0.39360501911290086,0.6898749586933283,0.3489238645537941,0.2874522763052178,0.38414481591286675,0.455993178801654,0.4149269397186763,0.11420955640976026,0.4722265015601301,0.4724320890428152,0.5384371784572269,0.3659513077664875,0.22523195530181578,0.6842776919452684,0.48207860629081817,0.48765230644581353,0.014102950376835557,0.5052031510653076,0.5039646288172367,0.28015991177070243,0.5352356845063289,0.2835519795963412,0.3673032544333358,0.43445478621071026,0.28148696513076554,0.03094933267636202,0.3174446139731026,0.33228124536720555,0.23211966650566374,0.6369134675920604,0.4221215424602394,0.5214474396680195,0.09120942534445522],[0.6848870321410814,0.31286240605434423,0.6917124372188419,0.6052568236243226,0.05920875202870433,0.32974740689038534,0.7518194029506235,0.2161083672586674,0.8034492673137414,0.6342048308165309,0.5124122829436611,0.5886855608213357,0.6511599977390771,0.20213282949628233,0.5373352557557848,0.365374820126591,0.4702462229183811,0.6343326460244636,0.2737131592469776,0.30568608749464604,0.20752731144339012,0.41116255730665985,0.4868313959318892,0.21292721299593487,0.654862904496991,0.3461905122456069,0.1828526773307861,0.4847952620932776,0.31724364369388897,0,0.4501298474641336,0.034662182365453015,0.7923513840065084,0.6336913166207417,0.049725806758956596,0.4175898194138559,0.32866380436090403,0.30247783518879645,0.6200538413694691,0.31063312773946006,0.38305443005871004,0.2006887976531752,0.07481246898676568,0.6932049317232268,0.6093925046131995,0.08399880338955723,0.5586979134117467,0.4746027467935112,0.5492653194221444,0.5208584641195383,0.3307177955441022,0.6236522651274575,0.1840905271217912,0.44194739195210253,0.3367171805885549,0.6576721127707962,0.6600053958590926,0.6612447000182763,0.16161542705715978,0.030257053220478166,0.6895421908334436,0.7805657298546957,0.3211930336922114,0.30539169323701193,0.6474913870041373,0.6645656888499243,0.2461226567411539,0.48866298137459485,0.525770776207267,0.6501297796565492,0.4392287189447987,0.24503090019315624,0.3009421529385053,0.2519025261866218,0.6903306484565472,0.05466641292538642,0.46003301630694166,0.29829166104502736,0.6849370150032029,0.14667063596856747,0.5657852168594543,0.3496810286454681,0.00870416530413695,0.03396998945658932,0.263225627721019,0.675252647090512,0.728983509357367,0.7737084331717103,0.39313218875150485],[0.41666982536388836,0.14088266146933312,0.23607937080610808,0.2859733746206783,0.4056254237485942,0.24783173588532362,0.29403904899048505,0.5445060812751245,0.36792795273158696,0.35604812187118956,0.2668451954084113,0.1401152053258019,0.2623309534598088,0.2572138641701771,0.6276340331623387,0.15531381596143828,0.2158738034719183,0.19485426293201474,0.1681721244600306,0.5042651514297956,0.5331777430383651,0.24676741872429875,0.6341229358357783,0.41736380586296423,0.5867771295912804,0.13392944418174618,0.3715836443845687,0.3736285851342033,0.17973946795435644,0.4501298474641336,0,0.45540686084489385,0.4671550944714884,0.18162027334575817,0.4595806872419634,0.13896087974839427,0.28268892782268795,0.1887039121102213,0.3195532358227089,0.20271132424368057,0.18684534280727597,0.5755444725300688,0.36712213677331285,0.25285749722528567,0.3728381880187765,0.3625273882627278,0.12800152247485105,0.44085161194780936,0.3356555347635535,0.5315827912297436,0.13693419846281107,0.16860059842055908,0.6394225924794068,0.6217975801604775,0.412933204020243,0.39425266020785416,0.20984545856132344,0.5950977659356395,0.4120335484851705,0.4134720762801296,0.23584822456236662,0.3639676152334546,0.4048496458288057,0.13711960917627897,0.2971679005125373,0.29161003076829384,0.6198577509049459,0.23397522830422915,0.2933634475567255,0.5930078007431977,0.4248883285502837,0.5437441431749439,0.2015894248766548,0.5648366488874041,0.3236182131708687,0.3964811289752576,0.4865747442162323,0.47141129588390707,0.24839223531764282,0.5901262019566429,0.35868712599195723,0.18515471351267143,0.4559572466517693,0.4502725871452826,0.23912686154293072,0.5118254129124519,0.2753148306754016,0.33525236977633766,0.08342712599991828],[0.7138293381887925,0.31247860115630555,0.6935140210090176,0.589853798373562,0.04256356548362167,0.3576576531924106,0.7548522468670383,0.17367066869604755,0.8167339363155673,0.6615685359101903,0.4940487109242903,0.5891496932766985,0.6693566656894684,0.1966464838961502,0.5799785397502413,0.38473621922133905,0.45500818400002696,0.6322685159012941,0.2808308571284251,0.2640890997630713,0.24929048313783075,0.3920790994500805,0.5298138224866965,0.17565407022936974,0.6941416751395917,0.3417140498475424,0.15239391081916545,0.5191386871188748,0.30851779670787666,0.034662182365453015,0.45540686084489385,0,0.8183562244556395,0.634554265268946,0.006787810570766573,0.4090432398118087,0.35968233535439553,0.29383525301833985,0.602506557184299,0.33311290974984253,0.40584238116939675,0.2383997289651608,0.08625096387546305,0.6905657269230536,0.6391411977667397,0.08499425006939448,0.570365044917983,0.4412428607543235,0.5266566790024055,0.5614952176270115,0.3277065798669606,0.6256472873074695,0.19453187946742823,0.48490715566494325,0.37631045930556384,0.6865068642662465,0.6692051519939812,0.7006564782400622,0.20268699855268,0.05926573555116915,0.690512473886371,0.7727577046915141,0.360615732233708,0.3131499590223824,0.6693415158443216,0.6845907634139361,0.2822873539724574,0.5135717485301445,0.5056702605846728,0.6897720198377617,0.4774431246087121,0.2872265706907988,0.2903021786161933,0.29334217769052073,0.7113513793267702,0.08566567821390875,0.5003823512155002,0.2582027717855895,0.6816415392879798,0.12761501705218997,0.5420655654909826,0.3379609186893439,0.018529592355228212,0.07694613961559214,0.2876474595469548,0.7104377972155747,0.7296933176528102,0.7862502814899421,0.391517815546753],[0.11733264599972724,0.5852362417693375,0.4574612551703628,0.7057517213586112,0.7800710410113736,0.45455371714318643,0.44417637020116163,0.9624063548861604,0.26419743003859875,0.1519141004595601,0.7262405003644401,0.4800988597584139,0.20511185700819518,0.6736794732139958,0.5719816710988344,0.43406043494439817,0.6828011997390161,0.5147482718420915,0.5683278744167952,0.95678468317494,0.7425294620938021,0.7220355130233308,0.6312319460706692,0.8551770589508472,0.38473494588350926,0.5987392870314017,0.8013661323190376,0.3430379581830571,0.6414323965486396,0.7923513840065084,0.4671550944714884,0.8183562244556395,0,0.47102860732104307,0.8288995838043982,0.6138101753369445,0.4605779721012988,0.6458749965431757,0.7413475003968565,0.47816909358791904,0.4060561280290018,0.8027771072524051,0.7253716961573102,0.5292913065119917,0.1905709234338561,0.7338860431702473,0.3420320990417106,0.9161463066643314,0.7924844062309225,0.4610375427326029,0.5943742357314643,0.4547837774508199,0.94037191972714,0.6568854593166662,0.5210694072120645,0.13937851882982685,0.34000429891324224,0.3895745021196662,0.6598652061044133,0.7550069352064538,0.4707608113143034,0.6384570174622924,0.5286464088911558,0.5412652192197133,0.161834283083953,0.17117856163037035,0.8286205601472022,0.29670124991334057,0.7517451152409914,0.3995226393419678,0.4326977982776586,0.726277187775914,0.6604545731632203,0.7470502610931499,0.14005467522754078,0.7294063450750244,0.4721757586508572,0.9261701520824428,0.5384911601918364,0.947241921038119,0.8138716215161812,0.6563605064582858,0.8055885656463319,0.7694482284907529,0.5223889246171265,0.2499621189968462,0.47999374864360356,0.27453100879027137,0.5562710099138588],[0.47024622291838114,0.31375617221599506,0.05200236450965581,0.23410230948550184,0.5838487213690247,0.42401651947913993,0.11607012355839644,0.6988749046981908,0.26760899266066507,0.4187573083813767,0.28475423094162006,0.03726986546896327,0.2642445167292364,0.43049532639421995,0.7836618773373426,0.331745799517165,0.26216020379700467,0.03540214014071143,0.35441022230591,0.6326049900823809,0.722506269943565,0.32882751835691054,0.8008968465156081,0.5651473657883633,0.7032030874513897,0.28809896713489913,0.52833084355924,0.5096323553721177,0.3289835437472264,0.6336913166207417,0.18162027334575817,0.634554265268946,0.47102860732104307,0,0.6369631888461948,0.24051287435728022,0.4574943163161838,0.34216027779764435,0.268319658253114,0.38654411624126644,0.353333093701006,0.7654730996701086,0.550626186642893,0.07121522198598242,0.45529891971727054,0.5434627966950137,0.16081306128847384,0.5032000058484708,0.34051971171389733,0.6778310535767015,0.29978224439489304,0.010965422944858381,0.8249554894144518,0.7946353371223741,0.5870819576615466,0.45601528951184794,0.1236488491713997,0.7112354615031453,0.6016529715014148,0.598243542636286,0.047632135451339826,0.19413293233737722,0.5811204908288296,0.324941651536906,0.324698965306354,0.2992444637830373,0.809648016130502,0.3539889645565575,0.30569834793265765,0.7124062650606604,0.5791490187295176,0.7318030530279366,0.3508584458742792,0.7531603983626478,0.32638640564024707,0.5829486683097083,0.641971373735346,0.5989392170610542,0.07279678080726992,0.7664725206597993,0.3583827871559273,0.31438908449561453,0.6379806387757488,0.6370745505553634,0.4268331913635567,0.6015793305972843,0.08696741663257368,0.23584822456236662,0.23544845572846326],[0.7253087247031201,0.31512790070388746,0.6961913648242598,0.5864695130269627,0.045718859719681544,0.3691164511354467,0.7579049090979572,0.15861357681184607,0.8232025555674627,0.6725947476826517,0.48967418214795433,0.591471387101373,0.6775167676360613,0.19826171924902214,0.5950871320708694,0.3936050191129008,0.45188163225242045,0.6336593332832894,0.2861477485550722,0.25005153853434503,0.26370724530613665,0.38762165101858354,0.5448820172069555,0.16408357251250705,0.7085459366450079,0.34281731840898433,0.1443431111123878,0.532266918213836,0.30822198183071936,0.049725806758956596,0.4595806872419634,0.006787810570766573,0.8288995838043982,0.6369631888461948,0,0.4084863264622733,0.3720124081000656,0.29363556952079045,0.5983048955438147,0.34303795818305705,0.4157175723487631,0.25138913718431755,0.09545116467988773,0.6916977711951131,0.6508933471655974,0.09120942534445522,0.5764954222789075,0.43092501782102915,0.5206037655933772,0.5762386207177617,0.32937899213138655,0.6284568235536131,0.19885721775039025,0.4998977561917874,0.39084644806908886,0.6979651714271734,0.6744185833452411,0.7150935188460039,0.21759017587290438,0.07306526996694794,0.6929048568367651,0.7719867490395833,0.37511748410728574,0.31853792649688667,0.6786609742910752,0.6933238283312901,0.29467502793683076,0.5239559729375871,0.5006143894801163,0.7042674962284263,0.49161601231377255,0.30180820300699446,0.28938541892113817,0.30760921178045897,0.7203837077990137,0.09920445643075555,0.5150671225142943,0.24498530822326448,0.6825504766685379,0.12223124569302198,0.5355614010714822,0.3364492839414176,0.03332794269763295,0.0919800352937389,0.2982581755977574,0.7237396900550833,0.7319625576678103,0.7924908163824378,0.39347408804405576],[0.5627168362169921,0.11454423989753129,0.30047705000392727,0.1942786707476357,0.3585822100814837,0.3362556734990856,0.3647355268323306,0.4516752297442106,0.4885777608707855,0.5017805450349252,0.13515637593290547,0.19674663546444324,0.4060561280290018,0.20721197516247797,0.7223991467062959,0.25779800524009616,0.07913048761218433,0.22559981121439812,0.17760513530672575,0.385127819769997,0.5556251059372594,0.100012969046179,0.7153968064066947,0.3172113586696303,0.712230694563205,0.07034257843958666,0.28399572063301326,0.4944827943929284,0.09228662666371917,0.4175898194138559,0.13896087974839427,0.4090432398118087,0.6138101753369445,0.24051287435728022,0.4084863264622733,0,0.3697653083115873,0.10703487163180016,0.2194457830841151,0.2800664778506379,0.29752056822739,0.5854394432954917,0.338331318972813,0.28044892040082825,0.5150940932736541,0.32535342844670706,0.268055114060775,0.294039048990485,0.20158942487665468,0.6385820087385362,0.08913784659669212,0.23841533284431524,0.6091805593140617,0.6938997344186536,0.4912976071862195,0.5396235481489989,0.32574164939476924,0.7205298648342667,0.4366059335010762,0.38707675945975534,0.293720557357219,0.35540302075289676,0.4797282423346424,0.1652467174337091,0.4440884431121513,0.4368164403441452,0.6328792460650153,0.3706941898707704,0.1605016895400865,0.7167644553091854,0.5286464088911558,0.5756104081249256,0.11091869201072281,0.5942890574187664,0.46885244873649357,0.3784531873234573,0.5865320802937805,0.351454627086192,0.2699431509327385,0.533672835175105,0.22487452562291832,0.06717592344954663,0.41802047730358616,0.4313105053077601,0.29561805688717746,0.6494726368162133,0.3301381712012598,0.4551272692502233,0.061653821027228155],[0.3486183920123556,0.26006926754331183,0.5005034278597676,0.5624133631172277,0.32935238994936483,0.026663806848233374,0.5451695981156556,0.5237244662064531,0.5261646920616282,0.3006224698860073,0.5125970839751866,0.4232054054165539,0.3546259716018162,0.275183589751236,0.34449590704108246,0.11936892914901204,0.4564545216739134,0.4804114316606383,0.20205964332153187,0.555902662321809,0.29214866219002067,0.44507451689918703,0.34379684495376617,0.44492450578973364,0.36276819466242494,0.30144554403086365,0.38934221537374036,0.1574564551708003,0.31884402689219615,0.32866380436090403,0.28268892782268795,0.35968233535439553,0.4605779721012988,0.4574943163161838,0.3720124081000656,0.3697653083115873,0,0.31254260052024735,0.5923437146903296,0.08144762250501011,0.09732625734365971,0.34835943414552645,0.27271033322783605,0.5351790182214505,0.2726052856406478,0.28682247449470094,0.314552087086499,0.6098784575024352,0.5765546681653809,0.26449864442992765,0.28462721882806163,0.44046288161166125,0.47239471604020317,0.33100156350025584,0.12214274882145508,0.3215783704353689,0.4195498611722034,0.3705688899500253,0.19285481258639722,0.2932102710324663,0.5047631301128612,0.6522624362105484,0.11531472563587794,0.2001293165427842,0.33261641301836065,0.35765765319241066,0.38295604789517423,0.16771345007822575,0.5370623685477558,0.36327410195223864,0.15496052550454756,0.2879594852868685,0.32504560583895564,0.3102144083793278,0.37761947048025474,0.26680788276676193,0.2092859298474319,0.5318394403865924,0.5330378982367728,0.4820393513995279,0.5994271934747967,0.3545693940322228,0.3432716362639305,0.3020977274785602,0.08543327846124807,0.3486183920123556,0.5415243509047979,0.5023839838330979,0.30307185492434296],[0.5743321284082217,0.053990484904714614,0.402388556414722,0.29961559117428116,0.2432823970766655,0.28363111154490833,0.4658929761286183,0.35134403341221143,0.5643797026099702,0.5135225666954524,0.2176640112546011,0.29670124991334057,0.4525002850957925,0.09255412976466676,0.6560128831008603,0.22974349653186055,0.167209717262114,0.3341037435749618,0.10215943679132207,0.308323319410279,0.4513710356398506,0.12960185473607116,0.6389171835753243,0.22113885023034513,0.6775527120289138,0.047746915806720115,0.17886397562234252,0.46101840294067736,0.006444265285297426,0.30247783518879645,0.1887039121102213,0.29383525301833985,0.6458749965431757,0.34216027779764435,0.29363556952079045,0.10703487163180016,0.31254260052024735,0,0.3191655162531135,0.22669992443471912,0.2699200907642853,0.47661816384854944,0.22424080434573798,0.3911838789742018,0.515125966015812,0.21038595360713586,0.3238964566568576,0.2919307611091899,0.27112128863447665,0.5850697376099314,0.0443723297544687,0.33634504567881396,0.4938519731810169,0.611702563213991,0.419417871019212,0.5487403148948671,0.4041097494219098,0.685647492689754,0.33617745382271397,0.2727651250802934,0.3974785243425757,0.4707206290014175,0.4059074462372456,0.11123038771400784,0.477170936791018,0.4784143580928646,0.52445481701716,0.36666040413872164,0.23728931977077755,0.6797808984940578,0.4758236067263647,0.4747090310212905,0.006444265285297426,0.4920675943089531,0.5097809947178319,0.265672090067899,0.528103617268027,0.2759656124090058,0.38153000837905265,0.420134328126204,0.2923407967062181,0.0434386687009332,0.30268009425389647,0.31766908119886456,0.22424632240801382,0.6355057607651614,0.4356155033623494,0.5314615533769322,0.10226392594377672],[0.7222674162800978,0.3417682694598894,0.304453513791972,0.02749745074941728,0.5551720771514396,0.557932407964865,0.3546259716018162,0.591497061902813,0.5404403204350494,0.6649241455911357,0.10042677217559969,0.25294592583088543,0.5290955305400011,0.41727633996712127,0.9448160575787825,0.4723947160402031,0.14370291472551558,0.2261751410509097,0.4052284072569953,0.4841390026383162,0.7784790961738338,0.20243140928376338,0.9414278159501033,0.4629650513311186,0.914565219396462,0.2970158339564441,0.45196528257809454,0.7010925798871495,0.3054898553422749,0.6200538413694691,0.3195532358227089,0.602506557184299,0.7413475003968565,0.268319658253114,0.5983048955438147,0.2194457830841151,0.5923437146903296,0.3191655162531135,0,0.5035611504924417,0.5092084990278289,0.8038222736184056,0.5475410810818427,0.24032714272291109,0.6908869953709789,0.5308430542941374,0.4003148115468239,0.2842414652341031,0.09838981845707902,0.8551963644117214,0.3159125325783918,0.2817215618158204,0.8052494952591744,0.9211827871368133,0.7170351987269225,0.7035918255167815,0.39905667734496303,0.9228822048684192,0.6614784907573495,0.594759517213045,0.2912675399479391,0.22566563479171134,0.7060032837972567,0.3923898724402402,0.583543073725226,0.5640120891095316,0.8517296202630292,0.5600520014428969,0.09443213095380017,0.9208831359458564,0.7464247945715822,0.8005224911306457,0.31618551913821136,0.8185130010942399,0.5937009985969707,0.5908098820337664,0.8063655291351876,0.4540210907486817,0.22688004830077838,0.7110535220343874,0.10410530342453653,0.2677252395377902,0.6169480115504483,0.6408811113868014,0.522724937346864,0.8343281703023859,0.3076538907885726,0.5100385352840281,0.28145596646452115],[0.38017141340519983,0.1715784772701483,0.4346286530996918,0.4741880146092258,0.29358881601326664,0.049192800700645314,0.4848342976179529,0.4788808107161978,0.4953396471638177,0.3243211014697825,0.4228245773999033,0.34869388600896173,0.3344783115614859,0.20484111475618152,0.43403432576739104,0.05257401140554235,0.3666843598057666,0.40491176165716447,0.11705659594986394,0.49284151982683017,0.33325946385889127,0.3566006604215881,0.43030519256962524,0.3840002931566682,0.44292224677023295,0.21205894567225278,0.3282065068370738,0.22808822369355283,0.23181524705486123,0.31063312773946006,0.20271132424368057,0.33311290974984253,0.47816909358791904,0.38654411624126644,0.34303795818305705,0.2800664778506379,0.08144762250501011,0.22669992443471912,0.5035611504924417,0,0.06440552384159666,0.38238494282529034,0.23928758071962047,0.4617642773803959,0.3096175877830953,0.24740553690798828,0.2623309534598088,0.5263183365921154,0.4868702709515056,0.3530633099246416,0.1955919227217485,0.37086344830693074,0.47931786930812037,0.41369108167759316,0.2061614948252049,0.35287860492449596,0.3689123912943649,0.45096885563535316,0.2168390917221094,0.27233106338524093,0.43720547177651853,0.5749837190524975,0.1963896218607955,0.11106926739232673,0.32857239451405634,0.3460275406238182,0.4231370001554617,0.17322588640340275,0.44729946344510335,0.4448678459162091,0.24303234739333182,0.3385903638644869,0.23990873845133107,0.36035127764614805,0.37139780907820524,0.24801203007272998,0.2988812429860853,0.46611753800083167,0.4582760796700179,0.465167157649722,0.5097785177448407,0.2663971092363273,0.32246410533442027,0.29424270769542665,0.041027301558780135,0.41097896020195634,0.47546297761808287,0.4680072218486458,0.2138960029068492],[0.311452869369954,0.20904400410595936,0.39509971961382745,0.4771709367910179,0.36597530881640405,0.06698872076351042,0.439561217847123,0.5492008718105614,0.43049532639421995,0.25406833292850894,0.4403542055840693,0.32076045291268507,0.26503436041682354,0.26760899266066507,0.4324911471676576,0.03251904724941249,0.3847590733014708,0.3781743747344388,0.16845546936180664,0.5561732620713272,0.38894184759648964,0.3880071626209188,0.44152822898674443,0.44926128426868905,0.4069829781494848,0.24201637443453752,0.3939209940481905,0.18886017156464735,0.2717084987820214,0.38305443005871004,0.18684534280727597,0.40584238116939675,0.4060561280290018,0.353333093701006,0.4157175723487631,0.29752056822739,0.09732625734365971,0.2699200907642853,0.5092084990278289,0.06440552384159666,0,0.4418248200434033,0.31195011843523535,0.4316869054227032,0.24385809710537226,0.31963150735477486,0.20947456322312935,0.5689417812396331,0.5074274845066002,0.33781635514597463,0.228879435233234,0.33594268816212164,0.5484637978864458,0.43310499588985873,0.22551750568723472,0.284381798088683,0.3151913759746815,0.4152542770338442,0.27856739680979214,0.34484491919240384,0.39961073444217615,0.5504355891491791,0.2201882996919033,0.15060330283279802,0.256138779131308,0.2746625523602887,0.4798465550610401,0.1017521472335874,0.46611753800083167,0.4111166655645621,0.2299967192587541,0.38896768995100317,0.2842590105218289,0.41116255730665996,0.2993112163236055,0.32029215745642853,0.29143455310628613,0.5280557678883514,0.43017643980433545,0.53773728045185,0.5307192693179171,0.30120346621912597,0.39507108878126307,0.3654537965601372,0.11184067475086264,0.35728928184196646,0.43610088779038014,0.40469120818262244,0.22765899633461134],[0.6814703988004563,0.46632847521527215,0.8183500148677793,0.7844069091568984,0.2658593753238056,0.3689123912943649,0.8722539944586267,0.39945340841189997,0.8802507286019797,0.6438533023089384,0.6995931480775767,0.7234328452596087,0.710816218097096,0.37863563435610426,0.3966808045485804,0.4431570686802707,0.6518018525432747,0.7758110352594679,0.4102468324592364,0.5086527462441576,0.05263719684747585,0.6017223962118908,0.3294511874930226,0.42162219722902883,0.5652355293836937,0.507713581096986,0.39070817972609173,0.45627777375517553,0.4906396119190514,0.2006887976531752,0.5755444725300688,0.2383997289651608,0.8027771072524051,0.7654730996701086,0.25138913718431755,0.5854394432954917,0.34835943414552645,0.47661816384854944,0.8038222736184056,0.38238494282529034,0.4418248200434033,0,0.25231644831179934,0.8348777820084732,0.6049785854964385,0.2723447808611515,0.653039065085582,0.682801199739016,0.7439364938097097,0.42186804930086125,0.48960202162414623,0.7518784902629435,0.16413410656150448,0.27828544622243545,0.27700647446348686,0.6564512448505215,0.7596197279172897,0.569714908356495,0.15743323034696854,0.2104563545191323,0.8191692775859108,0.9364748103619894,0.26725064417287764,0.4357542387632287,0.6884766341032164,0.7143001132514013,0.03968284101357687,0.5240138338893054,0.7161429557423874,0.55635283230397,0.37916590091756086,0.08130455654982342,0.47934944872402413,0.0705021222447469,0.7335782054607496,0.20736077613463277,0.3708566794201026,0.5047005965249665,0.8289379039661496,0.2568124281966449,0.762200623051994,0.5278068822733797,0.21285405921831485,0.16511358098228893,0.33561449327868725,0.6253699014286122,0.858400529798521,0.8548321779117218,0.5439161356766113],[0.6229919551196501,0.23030345861358759,0.6085838127383173,0.5306145059775907,0.04831596949546834,0.2671621488197035,0.6686935429351971,0.2438580971053722,0.7234942245112536,0.5695794637078797,0.44144834413225664,0.5056727573554513,0.5748340937256475,0.1233957807573321,0.5305835492750002,0.2901818263341663,0.39618618965383123,0.5517432048948041,0.19082884629494248,0.29918187011606784,0.24046645444755435,0.34207605132586427,0.49020733055304666,0.1917431340910556,0.6225787782054877,0.2650137500895962,0.14531511000558747,0.4360258034500467,0.23889337359268836,0.07481246898676568,0.36712213677331285,0.08625096387546305,0.7253716961573102,0.550626186642893,0.09545116467988773,0.338331318972813,0.27271033322783605,0.22424080434573798,0.5475410810818427,0.23928758071962047,0.31195011843523535,0.25231644831179934,0,0.6107207014070662,0.5492008718105614,0.014330663399730496,0.47774948374201315,0.4309367042303843,0.48358362438858427,0.4966831927726246,0.24897146540409834,0.5405221646351411,0.266448489510382,0.45056632315465894,0.30953281299635743,0.5956228457729449,0.5780557558607495,0.6295461908240356,0.15233800677876272,0.040504474218652116,0.6064582837927623,0.6999846102178336,0.29351229465268036,0.22269611687466248,0.5749837190524975,0.5900254056368514,0.30018184482445065,0.4203678917919998,0.4568436824697095,0.6196002892404241,0.4040288399641911,0.27226246594634734,0.22436768667193108,0.2848374159380619,0.6168597506308502,0.03678885093693281,0.4348516823350161,0.283252842867999,0.6026389032519709,0.22133110343233112,0.5016295737637158,0.2734081311505237,0.08104646070930725,0.08525517158378357,0.19501210735713786,0.6279810254967134,0.6459142289992154,0.6933201702745428,0.3107095651754125],[0.5399747454987979,0.3720933800235102,0.06405176818802705,0.21092511623678714,0.6396761393331563,0.5013501590209735,0.10597315832163277,0.7392818664388456,0.2980781286218023,0.49105610027593416,0.2861477485550723,0.10478809215479491,0.33071401036686504,0.4855987710966098,0.8631979428190849,0.4085879186023063,0.278486867781828,0.050972498139027815,0.4190216559623775,0.6612140328825583,0.7939861846178045,0.35134403341221143,0.8800225065065993,0.6043974557255809,0.7804502380116448,0.3405815468669223,0.5727706301971379,0.5889090770284,0.37706043726958555,0.6932049317232268,0.25285749722528567,0.6905657269230536,0.5292913065119917,0.07121522198598242,0.6916977711951131,0.28044892040082825,0.5351790182214505,0.3911838789742018,0.24032714272291109,0.4617642773803959,0.4316869054227032,0.8348777820084732,0.6107207014070662,0,0.5299759616979132,0.6016319321503107,0.23900236206641193,0.5069619679158713,0.3301722942252659,0.7572782529448254,0.354724961132704,0.09004219189364113,0.8854607803548971,0.873117793428583,0.665147131397186,0.5274740565582456,0.1832349214792173,0.7884244853830809,0.6725890935470417,0.6590811375900509,0.05042896049710317,0.11520049806665296,0.6588061111739486,0.3913605148054714,0.3933878418403685,0.364955622269862,0.8798693626126519,0.4331049958898587,0.3021349324647215,0.7899451553673323,0.6586675934114963,0.8049260639286719,0.3977630445025681,0.8260144031950879,0.3896099784323267,0.6455610521544423,0.7214923604318252,0.6278963122741215,0.005361993201954739,0.8194793926435181,0.3442557607825981,0.3559389228199579,0.6961713271693135,0.6997617208071999,0.5001804927447596,0.6758550193533197,0.05905656037755375,0.2701690395357661,0.2917469176431703],[0.06872381081566034,0.4528538259313424,0.467198276862078,0.6555239714215848,0.6054220331747333,0.27371315924697764,0.4808864732571529,0.7955953124169164,0.36269691343597366,0.045025792376359536,0.6479882378509384,0.44527543533398095,0.2065201901571555,0.5196834031149387,0.3961132144968115,0.28049335759855715,0.5966016339311578,0.49512811975399573,0.4197927366357834,0.8083290616313658,0.5444851884495834,0.6178606788966217,0.44635208674162535,0.7009417118178843,0.24994825619733912,0.47796859692068616,0.6453745763357441,0.1444103441084656,0.5144562303583111,0.6093925046131995,0.3728381880187765,0.6391411977667397,0.1905709234338561,0.45529891971727054,0.6508933471655974,0.5150940932736541,0.2726052856406478,0.515125966015812,0.6908869953709789,0.3096175877830953,0.24385809710537226,0.6049785854964385,0.5492008718105614,0.5299759616979132,0,0.5607109228673021,0.28938541892113817,0.8076310386735388,0.716787463581649,0.2807287606954859,0.4685242264463923,0.43619039485128025,0.746982300691173,0.46645823615152826,0.32225065840627365,0.04316523887203337,0.34739387862870663,0.257300842522864,0.4668905167076777,0.5734261757885548,0.4778682779885575,0.6521128303298676,0.3301230043085057,0.3987194671928357,0.14523991644736958,0.1816743160186424,0.6299564861482926,0.1401843523716653,0.6745031632284292,0.2617423612524924,0.23563790157067552,0.5275099829530576,0.5298329002234883,0.5482078973345387,0.1774117732876272,0.5471692549596034,0.2804444763049557,0.7802191547559677,0.5348955981297538,0.7629697134399857,0.7397709338334741,0.5383808440078772,0.623741607926992,0.5828423065337583,0.34727841320784136,0.1380256031873126,0.5015792400735084,0.3544137602141954,0.4480087052575617],[0.6337312935521026,0.22171635513308688,0.6020000160830756,0.5148488534177107,0.03838212825313023,0.2790366997000317,0.6628451085162734,0.22857626923424718,0.7237747498428185,0.5793565087545789,0.42407291400922725,0.498238558778283,0.5784058216137722,0.1098375735977092,0.5522653971664612,0.29551670553052034,0.3800524754455581,0.5429113135448304,0.187527992406593,0.27802114551899815,0.2623641422754039,0.32392349567847495,0.512545346295404,0.16978915033528086,0.6409621737221826,0.2539989224707526,0.12270221954664937,0.4513124063068393,0.22513852653721497,0.08399880338955723,0.3625273882627278,0.08499425006939448,0.7338860431702473,0.5434627966950137,0.09120942534445522,0.32535342844670706,0.28682247449470094,0.21038595360713586,0.5308430542941374,0.24740553690798828,0.31963150735477486,0.2723447808611515,0.014330663399730496,0.6016319321503107,0.5607109228673021,0,0.4772105852861846,0.40865871060816494,0.464600354482629,0.5165411210848134,0.23877395010740543,0.5340113220160968,0.276249861436813,0.4731123039206018,0.32951197162070983,0.6063559900258417,0.57588945304417,0.6480214782189196,0.1747673841483788,0.05569699411618508,0.599395518590218,0.6882408506069754,0.3134970760598736,0.21983421819380788,0.5809811345189975,0.5947765405490505,0.3200421268036237,0.4289513977677321,0.43878117538205996,0.6382883401489565,0.42236892710138524,0.29457336103923637,0.20936847706151243,0.30686091480621314,0.6222230939726423,0.05805881054447323,0.4547006363140771,0.2613762179956672,0.5931806417173339,0.22081642694522505,0.48227744946758483,0.25829905420297633,0.08629166265287838,0.10215943679132207,0.205280145663578,0.6431917985788975,0.6387268097024527,0.6931591968926437,0.30166747926789633],[0.3138677186599106,0.27148843938695616,0.18689136530546374,0.3645153014682966,0.5226403498552247,0.28465788196571973,0.2236662092450006,0.6749972762652714,0.2388154952562742,0.2577594239325728,0.37608017290128637,0.14759520991486175,0.13034420704098312,0.3826640351530717,0.6204519618601066,0.20158942487665482,0.33267663294161715,0.19836729711675224,0.2826448259334031,0.6402007455057528,0.6030840478728511,0.37610020328230337,0.6432567974353717,0.5508644798531837,0.5341637141291141,0.26993489561204653,0.5029816906820412,0.3428077794363459,0.3156155471346652,0.5586979134117467,0.12800152247485105,0.570365044917983,0.3420320990417106,0.16081306128847384,0.5764954222789075,0.268055114060775,0.314552087086499,0.3238964566568576,0.4003148115468239,0.2623309534598088,0.20947456322312935,0.653039065085582,0.47774948374201315,0.23900236206641193,0.28938541892113817,0.4772105852861846,0,0.5693862336114494,0.4428613533867064,0.5120054896428746,0.271465506579745,0.14152634253189741,0.7409707971258466,0.641783868263798,0.43885005739184807,0.29617488635075734,0.09832967302831006,0.5422171034741509,0.4874659728850552,0.5205309720559189,0.1943863230994577,0.3625273882627276,0.43538128900849354,0.25032457335806735,0.1765183142240024,0.16273691778086236,0.6934097871753728,0.18674010775203445,0.40176315289114184,0.5432860098318606,0.4172884011383,0.6056060117225814,0.33719292842480086,0.6277026396821414,0.19448126301431712,0.5000467173682257,0.479762424512508,0.607476118888276,0.24185530512168177,0.7062996544130146,0.46461392229815585,0.32110344649286876,0.5669642659040602,0.5516354994579578,0.3098395099362143,0.43560104926466686,0.22669446398069681,0.20769371836583894,0.21955844111376305],[0.8607353596120366,0.3516044094691044,0.5556455860750203,0.29937795438305137,0.4086156212534456,0.5826425551607831,0.6158284323349382,0.3553500928703741,0.7742842192222961,0.7995302458246896,0.21276700892965,0.468613030171275,0.7078692671103748,0.33855336929533925,0.942236857091125,0.5283141038528637,0.2352746676144536,0.47106876381955554,0.4009831900656869,0.22508355097098598,0.6790475543060266,0.18579042500723755,0.9151963032590819,0.2600807907245508,0.9775341070247638,0.3215893012025848,0.28376734409193033,0.7612740320142419,0.2889713072665315,0.4746027467935112,0.44085161194780936,0.4412428607543235,0.9161463066643314,0.5032000058484708,0.43092501782102915,0.294039048990485,0.6098784575024352,0.2919307611091899,0.2842414652341031,0.5263183365921154,0.5689417812396331,0.682801199739016,0.4309367042303843,0.5069619679158713,0.8076310386735388,0.40865871060816494,0.5693862336114494,0,0.17776381808967306,0.8803604854425198,0.33248087928583436,0.5087768499868713,0.6261309037369706,0.8810605883640085,0.7058577477604584,0.8365654840589132,0.6144225215470549,0.9855966508402858,0.5852254312289557,0.46564393984823926,0.5447172866190925,0.5174523391684982,0.6910925297327748,0.4111931490124171,0.7463091624893592,0.739038071300269,0.7289278092172127,0.6597441967766481,0.19717173509482128,0.9794769801390317,0.7724651928176818,0.7115243296739617,0.2782630573106679,0.723699369223325,0.7710602662860977,0.4747621643663364,0.8215619062696548,0.20443133946059702,0.4934429208039631,0.5084913668259678,0.17394546620306234,0.26117153192103393,0.4643289163831209,0.5096100557910863,0.5182328245212725,0.9337038656334118,0.5718157870083156,0.7412156757874698,0.3542969910156104],[0.7576904962450611,0.31049227396378426,0.38645310533277755,0.11470080936243499,0.48238730191886386,0.5438812766604691,0.44272195879710424,0.4957013315751759,0.6164285297873454,0.6979070248958004,0.06048879266724836,0.31394737105321413,0.5791927069296271,0.35948350890676944,0.9277343934675696,0.46768650483981794,0.11448155622000811,0.30289046918601564,0.3732419996217541,0.3821680982680993,0.7252667407306291,0.13515637593290558,0.9157242035071071,0.3723065574012491,0.9218601812960864,0.2672395139515721,0.36951065432912417,0.7043035140051714,0.25994491959125837,0.5492653194221444,0.3356555347635535,0.5266566790024055,0.7924844062309225,0.34051971171389733,0.5206037655933772,0.20158942487665468,0.5765546681653809,0.27112128863447665,0.09838981845707902,0.4868702709515056,0.5074274845066002,0.7439364938097097,0.48358362438858427,0.3301722942252659,0.716787463581649,0.464600354482629,0.4428613533867064,0.17776381808967306,0,0.8473359455384804,0.28487243413907287,0.34999633993567963,0.7273839368297425,0.8902879592660795,0.6934518483047168,0.736454450447776,0.4640926383705619,0.9301674895594293,0.6137792327712447,0.5283141038528637,0.37430333144951755,0.3314097729604765,0.6808375543289324,0.3685754510178806,0.6273938520367399,0.6130051678192681,0.7918976600682088,0.5762605739780226,0.03396998945658932,0.9265545941965511,0.737253541989754,0.7511252051301947,0.263801580174817,0.767434260571227,0.6441956031800511,0.5283236694633024,0.7940757541173601,0.353333093701006,0.316485934462871,0.625380027