"trial_id","rt","stimulus","response","trial_type","trial_index","plugin_version","time_elapsed","language","participant_number","success","raw_payload","placements","dissimilarity_vector","n_words","trial_category","distance_matrix","value"
"consent_form","7186","
    <div style=""max-width:800px; margin:0 auto; text-align:left; font-size: 16px; padding: 10px 0;"">
      <h1>Informed Consent Form</h1>
      <p>You are being invited to participate in a research study titled <strong>""Reproducibility of Psychological Science and Instruction.""</strong> This study is being done by Dr. Bria Long from UC San Diego and associated graduate students in the Experimental Methods course. You were selected to participate in this study because you are an adult in the U.S. and have been a represented population in previous psychology studies.</p>
      
      <p>The purpose of this study is to better understand how well previously published studies in the psychological field replicate online and with different populations. Your participation in this research should last approximately <strong>5-30 minutes</strong>. If you agree to take part in this study, you may be asked to view a set of stimuli, including pictures, sounds, written text, or videos and then giving some responses via key-presses, verbally, or with paper-and-pencil. We may also observe your choices or preferences among an array of stimuli. These stimuli will be taken directly from or closely adapted from studies that already exist in the published psychological literature. Stimuli will include, e.g., pictures of objects and human faces, audio and video clips, short text passages, etc. None of the stimuli will be disturbing, threatening, or offensive. The online and in-person experiments described in this protocol will take no more than 30 minutes. An example game you might play would be to click on an image on the screen that matches a word you hear being said out loud. Your total expected time commitment for this study is between 5-30 minutes, and is specified in the study description.</p>
      
      <p>Your participation in this study is completely voluntary and you can withdraw at any time. Choosing not to participate or withdrawing will result in no penalty or loss of benefits to which you are entitled. You are free to skip any question that you choose.</p>
      
      <p>We will not be asking for any personally identifying information, and we will handle responses as confidentially as possible. Your SONA or Prolific IDs will never be tied to your responses on this survey. However, we cannot guarantee the confidentiality of information transmitted over the Internet. To minimize this risk, data containing anything that might be personally identifying (e.g. Prolific IDs or IP addresses) will be encrypted on transfer and storage and will only be accessible to qualified lab personnel. We will be keeping data collected as part of this experiment indefinitely. This anonymized data (containing neither Prolific IDs nor IP addresses) may be shared with the scientific community or with other participants to be used as stimuli in future studies.</p>
      
      <p>If you have questions about this project or if you have a research-related problem, you may contact the researcher(s), <strong>Dr. Bria Long, <a href=""mailto:brlong@ucsd.edu"">brlong@ucsd.edu</a></strong>. If you have any questions concerning your rights as a research subject, you may contact the UC San Diego Office of IRB Administration at <a href=""mailto:irb@ucsd.edu"">irb@ucsd.edu</a> or 858-246-4777.</p>
      
      <h3 style=""margin-top: 25px;"">Consent Statement</h3>
      <p style=""font-weight: bold;"">By participating in this research you are indicating that you are at least 18 years old, have read this consent form, and agree to participate in this research study. Please keep this consent form for your records.</p>
    </div>
  ","0","html-button-response","0","2.1.0","7190","en","8cjomp4802_5a1uod","","","","","","","",""
"","13660","
    <div style=""display:flex; align-items:center; justify-content:center; height:100vh; font-family:sans-serif;"">
      <div style=""max-width:900px; margin:0 auto; text-align:center;"">
        <h1 style= ""font-size: 24px;"">Welcome! Thank you for participating in the study.</h1>
        <p style=""font-size:18px; line-height:1.6;"">
          In this task, you will be presented with <strong>90 words</strong> arranged <strong>outside a circle</strong>.<br>
          Your job is to <strong>drag these words into the circle</strong> and <strong>rearrange them</strong> based on their <strong>meaning similarity</strong>.<br><br>
          Words that are <strong>similar in meaning</strong> should be placed <strong>closer together</strong>.<br>
          Words that are <strong>different in meaning</strong> should be placed <strong>farther apart</strong>.<br><br>
          You can place the words <strong>anywhere inside the circle</strong>. There is no single correct answer — 
          we are interested in <strong>your personal judgment</strong> of how these words relate to each other.<br><br>
          <strong>You must move all words into the circle before you can finish.</strong><br>
          After the initial arrangement, you will arrange words from specific categories.
        </p>
        <p style=""font-size:16px; margin-top:30px;""><em>Press any key to continue.</em></p>
      </div>
    </div>
  "," ","html-keyboard-response","1","2.1.0","20852","en","8cjomp4802_5a1uod","","","","","","","",""
"","2432","<p style='font-size:20px;'>Which is your first language or primary language of use?</p>","1","html-button-response","2","2.1.0","23286","en","8cjomp4802_5a1uod","","","","","","","",""
"","1182","","","fullscreen","3","2.1.0","25472","en","8cjomp4802_5a1uod","true","{""placements"":[{""word"":""proud"",""x"":151,""y"":155.5,""cx"":173.9,""cy"":172.5,""angle_rad"":-2.352,""angle_deg"":225.2},{""word"":""refrigerator"",""x"":531.8,""y"":325.5,""cx"":571,""cy"":342.5,""angle_rad"":-0.034,""angle_deg"":358.1},{""word"":""rabbit"",""x"":138.5,""y"":488.5,""cx"":161,""cy"":505.5,""angle_rad"":2.453,""angle_deg"":140.6},{""word"":""agreement"",""x"":375.5,""y"":50.5,""cx"":414,""cy"":67.5,""angle_rad"":-1.348,""angle_deg"":282.8},{""word"":""lips"",""x"":311.5,""y"":594.5,""cx"":327,""cy"":611.5,""angle_rad"":1.658,""angle_deg"":95},{""word"":""scissors"",""x"":324.8,""y"":56.5,""cx"":355,""cy"":73.5,""angle_rad"":-1.553,""angle_deg"":271},{""word"":""giraffe"",""x"":101.8,""y"":476.5,""cx"":126.1,""cy"":493.5,""angle_rad"":2.572,""angle_deg"":147.3},{""word"":""system"",""x"":356.8,""y"":136.5,""cx"":383.9,""cy"":153.5,""angle_rad"":-1.4,""angle_deg"":279.8},{""word"":""fault"",""x"":206.8,""y"":90.5,""cx"":225,""cy"":107.5,""angle_rad"":-2.047,""angle_deg"":242.7},{""word"":""friendship"",""x"":148.8,""y"":335.5,""cx"":184.1,""cy"":352.5,""angle_rad"":3.127,""angle_deg"":179.1},{""word"":""method"",""x"":324.8,""y"":117.5,""cx"":353.1,""cy"":134.5,""angle_rad"":-1.556,""angle_deg"":270.8},{""word"":""ant"",""x"":108.3,""y"":479.5,""cx"":123,""cy"":496.5,""angle_rad"":2.569,""angle_deg"":147.2},{""word"":""depressed"",""x"":405.3,""y"":149.5,""cx"":442.9,""cy"":166.5,""angle_rad"":-1.102,""angle_deg"":296.9},{""word"":""sofa"",""x"":569.8,""y"":287.5,""cx"":588,""cy"":304.5,""angle_rad"":-0.189,""angle_deg"":349.2},{""word"":""violence"",""x"":281.3,""y"":37.5,""cx"":311.9,""cy"":54.5,""angle_rad"":-1.699,""angle_deg"":262.7},{""word"":""chopsticks"",""x"":492.3,""y"":322.5,""cx"":529.9,""cy"":339.5,""angle_rad"":-0.058,""angle_deg"":356.7},{""word"":""concept"",""x"":228.5,""y"":94.5,""cx"":258,""cy"":111.5,""angle_rad"":-1.939,""angle_deg"":248.9},{""word"":""sparrow"",""x"":311,""y"":99.5,""cx"":340.9,""cy"":116.5,""angle_rad"":-1.61,""angle_deg"":267.8},{""word"":""chair"",""x"":543.8,""y"":346.5,""cx"":563.9,""cy"":363.5,""angle_rad"":0.063,""angle_deg"":3.6},{""word"":""business"",""x"":183.3,""y"":105.5,""cx"":215.9,""cy"":122.5,""angle_rad"":-2.103,""angle_deg"":239.5},{""word"":""magic power"",""x"":360.3,""y"":190.5,""cx"":404.9,""cy"":207.5,""angle_rad"":-1.203,""angle_deg"":291.1},{""word"":""result"",""x"":227,""y"":217.5,""cx"":249.1,""cy"":234.5,""angle_rad"":-2.289,""angle_deg"":228.9},{""word"":""hostility"",""x"":140.8,""y"":349.5,""cx"":169.1,""cy"":366.5,""angle_rad"":3.051,""angle_deg"":174.8},{""word"":""dispute"",""x"":23.5,""y"":308.5,""cx"":51.1,""cy"":325.5,""angle_rad"":-3.06,""angle_deg"":184.7},{""word"":""relationship"",""x"":359.3,""y"":39.5,""cx"":400.1,""cy"":56.5,""angle_rad"":-1.402,""angle_deg"":279.7},{""word"":""pencil"",""x"":519.8,""y"":332.5,""cx"":543,""cy"":349.5,""angle_rad"":-0.003,""angle_deg"":359.9},{""word"":""anger"",""x"":374,""y"":88.5,""cx"":396.9,""cy"":105.5,""angle_rad"":-1.381,""angle_deg"":280.9},{""word"":""team"",""x"":398.5,""y"":201.5,""cx"":419.1,""cy"":218.5,""angle_rad"":-1.087,""angle_deg"":297.7},{""word"":""washing machine"",""x"":487,""y"":323.5,""cx"":546.1,""cy"":340.5,""angle_rad"":-0.048,""angle_deg"":357.2},{""word"":""thigh"",""x"":290.8,""y"":589.5,""cx"":310.9,""cy"":606.5,""angle_rad"":1.722,""angle_deg"":98.7},{""word"":""charity"",""x"":437.5,""y"":248.5,""cx"":463.1,""cy"":265.5,""angle_rad"":-0.642,""angle_deg"":323.2},{""word"":""finger"",""x"":291.5,""y"":612.5,""cx"":314,""cy"":629.5,""angle_rad"":1.699,""angle_deg"":97.3},{""word"":""characteristic"",""x"":55.8,""y"":216.5,""cx"":102,""cy"":233.5,""angle_rad"":-2.702,""angle_deg"":205.2},{""word"":""cat"",""x"":86.8,""y"":474.5,""cx"":101.1,""cy"":491.5,""angle_rad"":2.625,""angle_deg"":150.4},{""word"":""eye"",""x"":314.8,""y"":596.5,""cx"":331,""cy"":613.5,""angle_rad"":1.643,""angle_deg"":94.1},{""word"":""bed"",""x"":507.3,""y"":302.5,""cx"":523.9,""cy"":319.5,""angle_rad"":-0.174,""angle_deg"":350.1},{""word"":""computer mouse"",""x"":475.8,""y"":309.5,""cx"":532.9,""cy"":326.5,""angle_rad"":-0.128,""angle_deg"":352.7},{""word"":""microwave"",""x"":520.5,""y"":341.5,""cx"":559,""cy"":358.5,""angle_rad"":0.041,""angle_deg"":2.3},{""word"":""reason"",""x"":68.5,""y"":296.5,""cx"":94.9,""cy"":313.5,""angle_rad"":-2.999,""angle_deg"":188.1},{""word"":""hammer"",""x"":575.3,""y"":303.5,""cx"":605.9,""cy"":320.5,""angle_rad"":-0.115,""angle_deg"":353.4},{""word"":""spoon"",""x"":559,""y"":348.5,""cx"":583.1,""cy"":365.5,""angle_rad"":0.066,""angle_deg"":3.8},{""word"":""fate"",""x"":311.3,""y"":63.5,""cx"":327.9,""cy"":80.5,""angle_rad"":-1.653,""angle_deg"":265.3},{""word"":""arm"",""x"":296,""y"":626.5,""cx"":313.1,""cy"":643.5,""angle_rad"":1.696,""angle_deg"":97.2},{""word"":""rat"",""x"":78.8,""y"":453.5,""cx"":91.9,""cy"":470.5,""angle_rad"":2.705,""angle_deg"":155},{""word"":""excited"",""x"":37.8,""y"":257.5,""cx"":64.9,""cy"":274.5,""angle_rad"":-2.883,""angle_deg"":194.8},{""word"":""ear"",""x"":345,""y"":642.5,""cx"":360.1,""cy"":659.5,""angle_rad"":1.538,""angle_deg"":88.1},{""word"":""society"",""x"":92.3,""y"":284.5,""cx"":119,""cy"":301.5,""angle_rad"":-2.935,""angle_deg"":191.9},{""word"":""toothbrush"",""x"":516,""y"":298.5,""cx"":554.1,""cy"":315.5,""angle_rad"":-0.167,""angle_deg"":350.4},{""word"":""process"",""x"":297.5,""y"":101.5,""cx"":327,""cy"":118.5,""angle_rad"":-1.67,""angle_deg"":264.3},{""word"":""splendor"",""x"":103.3,""y"":242.5,""cx"":135.1,""cy"":259.5,""angle_rad"":-2.743,""angle_deg"":202.8},{""word"":""air conditioner"",""x"":578,""y"":289.5,""cx"":627,""cy"":306.5,""angle_rad"":-0.156,""angle_deg"":351.1},{""word"":""tortoise"",""x"":96,""y"":474.5,""cx"":124,""cy"":491.5,""angle_rad"":2.582,""angle_deg"":148},{""word"":""status"",""x"":341.3,""y"":68.5,""cx"":364.9,""cy"":85.5,""angle_rad"":-1.514,""angle_deg"":273.2},{""word"":""trauma"",""x"":464.3,""y"":118.5,""cx"":491,""cy"":135.5,""angle_rad"":-0.989,""angle_deg"":303.3},{""word"":""death"",""x"":397.5,""y"":71.5,""cx"":420,""cy"":88.5,""angle_rad"":-1.309,""angle_deg"":285},{""word"":""happy"",""x"":396,""y"":30.5,""cx"":420.1,""cy"":47.5,""angle_rad"":-1.343,""angle_deg"":283},{""word"":""identity"",""x"":59.8,""y"":158.5,""cx"":86.9,""cy"":175.5,""angle_rad"":-2.556,""angle_deg"":213.6},{""word"":""marriage"",""x"":240.3,""y"":73.5,""cx"":272.9,""cy"":90.5,""angle_rad"":-1.86,""angle_deg"":253.4},{""word"":""error"",""x"":548.3,""y"":513.5,""cx"":568,""cy"":530.5,""angle_rad"":0.692,""angle_deg"":39.6},{""word"":""ankle"",""x"":319.3,""y"":591.5,""cx"":341,""cy"":608.5,""angle_rad"":1.606,""angle_deg"":92},{""word"":""tiger"",""x"":112.5,""y"":431.5,""cx"":131.1,""cy"":448.5,""angle_rad"":2.719,""angle_deg"":155.8},{""word"":""apathy"",""x"":234,""y"":44.5,""cx"":260,""cy"":61.5,""angle_rad"":-1.873,""angle_deg"":252.7},{""word"":""disease"",""x"":508.8,""y"":141.5,""cx"":537.9,""cy"":158.5,""angle_rad"":-0.795,""angle_deg"":314.5},{""word"":""broom"",""x"":570.3,""y"":346.5,""cx"":595.1,""cy"":363.5,""angle_rad"":0.055,""angle_deg"":3.2},{""word"":""sad"",""x"":318.8,""y"":67.5,""cx"":335,""cy"":84.5,""angle_rad"":-1.627,""angle_deg"":266.8},{""word"":""key"",""x"":559,""y"":326.5,""cx"":574.9,""cy"":343.5,""angle_rad"":-0.029,""angle_deg"":358.3},{""word"":""heaven"",""x"":305,""y"":18.5,""cx"":333,""cy"":35.5,""angle_rad"":-1.625,""angle_deg"":266.9},{""word"":""obligation"",""x"":19,""y"":292.5,""cx"":54,""cy"":309.5,""angle_rad"":-3.006,""angle_deg"":187.8},{""word"":""data"",""x"":542.3,""y"":531.5,""cx"":560.9,""cy"":548.5,""angle_rad"":0.755,""angle_deg"":43.3},{""word"":""loving heart"",""x"":346.8,""y"":125.5,""cx"":387.9,""cy"":142.5,""angle_rad"":-1.39,""angle_deg"":280.4},{""word"":""content"",""x"":230,""y"":257.5,""cx"":258,""cy"":274.5,""angle_rad"":-2.455,""angle_deg"":219.4},{""word"":""phenomenon"",""x"":357,""y"":117.5,""cx"":402.9,""cy"":134.5,""angle_rad"":-1.33,""angle_deg"":283.8},{""word"":""cabinet"",""x"":548.5,""y"":321.5,""cx"":576.1,""cy"":338.5,""angle_rad"":-0.051,""angle_deg"":357.1},{""word"":""miracle"",""x"":393.5,""y"":70.5,""cx"":421.1,""cy"":87.5,""angle_rad"":-1.306,""angle_deg"":285.1},{""word"":""fear"",""x"":399,""y"":36.5,""cx"":416.1,""cy"":53.5,""angle_rad"":-1.352,""angle_deg"":282.6},{""word"":""knee"",""x"":308.8,""y"":568.5,""cx"":328.9,""cy"":585.5,""angle_rad"":1.66,""angle_deg"":95.1},{""word"":""comfortable"",""x"":333.5,""y"":105.5,""cx"":375.1,""cy"":122.5,""angle_rad"":-1.461,""angle_deg"":276.3},{""word"":""debt"",""x"":363.3,""y"":48.5,""cx"":381.9,""cy"":65.5,""angle_rad"":-1.459,""angle_deg"":276.4},{""word"":""elephant"",""x"":92.3,""y"":446.5,""cx"":124.1,""cy"":463.5,""angle_rad"":2.676,""angle_deg"":153.3},{""word"":""effect"",""x"":317,""y"":43.5,""cx"":339,""cy"":60.5,""angle_rad"":-1.609,""angle_deg"":267.8},{""word"":""discipline"",""x"":325.3,""y"":49.5,""cx"":359,""cy"":66.5,""angle_rad"":-1.539,""angle_deg"":271.8},{""word"":""television"",""x"":561.8,""y"":314.5,""cx"":595.9,""cy"":331.5,""angle_rad"":-0.075,""angle_deg"":355.7},{""word"":""shoulder"",""x"":331.3,""y"":622.5,""cx"":363.1,""cy"":639.5,""angle_rad"":1.526,""angle_deg"":87.4},{""word"":""nose"",""x"":318.8,""y"":621.5,""cx"":338.9,""cy"":638.5,""angle_rad"":1.609,""angle_deg"":92.2},{""word"":""ax"",""x"":577.5,""y"":305.5,""cx"":589.9,""cy"":322.5,""angle_rad"":-0.114,""angle_deg"":353.5},{""word"":""scenery"",""x"":11.5,""y"":323.5,""cx"":41,""cy"":340.5,""angle_rad"":-3.111,""angle_deg"":181.8},{""word"":""panda"",""x"":104.5,""y"":501.5,""cx"":129,""cy"":518.5,""angle_rad"":2.49,""angle_deg"":142.7},{""word"":""fraud"",""x"":287,""y"":48.5,""cx"":308,""cy"":65.5,""angle_rad"":-1.717,""angle_deg"":261.6},{""word"":""table"",""x"":568.8,""y"":309.5,""cx"":588.9,""cy"":326.5,""angle_rad"":-0.098,""angle_deg"":354.4}],""n_words"":89,""words"":[""proud"",""refrigerator"",""rabbit"",""agreement"",""lips"",""scissors"",""giraffe"",""system"",""fault"",""friendship"",""method"",""ant"",""depressed"",""sofa"",""violence"",""chopsticks"",""concept"",""sparrow"",""chair"",""business"",""magic power"",""result"",""hostility"",""dispute"",""relationship"",""pencil"",""anger"",""team"",""washing machine"",""thigh"",""charity"",""finger"",""characteristic"",""cat"",""eye"",""bed"",""computer mouse"",""microwave"",""reason"",""hammer"",""spoon"",""fate"",""arm"",""rat"",""excited"",""ear"",""society"",""toothbrush"",""process"",""splendor"",""air conditioner"",""tortoise"",""status"",""trauma"",""death"",""happy"",""identity"",""marriage"",""error"",""ankle"",""tiger"",""apathy"",""disease"",""broom"",""sad"",""key"",""heaven"",""obligation"",""data"",""loving heart"",""content"",""phenomenon"",""cabinet"",""miracle"",""fear"",""knee"",""comfortable"",""debt"",""elephant"",""effect"",""discipline"",""television"",""shoulder"",""nose"",""ax"",""scenery"",""panda"",""fraud"",""table""],""distance_matrix"":[[0,0.6908539619843429,0.5324383247633008,0.4181802068143031,0.7437698157533523,0.32884963861201477,0.5184593141185794,0.3360144958408461,0.13030743525582428,0.28695507388759084,0.29160270634148033,0.5239710432943067,0.429432865439943,0.6951401057663105,0.2890127711286376,0.6286892171181098,0.16434985570513078,0.2802954554116692,0.6945457088389192,0.10241139724872027,0.3725714527125936,0.1540301196352815,0.3090551684957336,0.3124677034990627,0.40558849509168693,0.6545625787796088,0.3713053989313168,0.3979943767951341,0.6529787718071487,0.7280085311220017,0.48515188634249784,0.7647325772803427,0.14893787237546718,0.5227316521755647,0.7489311318641743,0.6068517784476811,0.6245370932027832,0.6839641755088656,0.2569988827271266,0.7304780876734648,0.7237089682331632,0.2855092094923335,0.7858309615094435,0.49364251789374036,0.2371924733336965,0.834367372961149,0.2226117265479719,0.6495194410552485,0.2581561445524665,0.15049431817723266,0.7559164137430097,0.5157949369762629,0.3344467685644525,0.5099725756903994,0.4149470719101613,0.4407440185567283,0.1373212713522756,0.2039201912059604,0.8520932813158194,0.7469693862340165,0.44585383183678395,0.2230645853950005,0.5822205124618828,0.7398413223095373,0.2922178271976848,0.697240180833109,0.334568365737203,0.28979400465388255,0.8635701543962705,0.3444156954330652,0.2097784417687525,0.3701560496692817,0.6959114696870221,0.4171372821583182,0.4306980110969947,0.7055695294242916,0.3303362637789352,0.37300738782015347,0.4714221343869397,0.3177937734806077,0.3399381793645083,0.721348638073839,0.8062634775091192,0.7909825164698592,0.7073173053071665,0.3413962221484537,0.5575568217002421,0.27294170622559755,0.70801557422179],[0.6908539619843429,0,0.7057059455931634,0.5058149460370986,0.5804666001683058,0.5512773627043606,0.7516269873854833,0.42442460951228445,0.668868273949419,0.6187475893300748,0.4810636475949509,0.7578913053452226,0.346967105370836,0.0644240211471056,0.6193386204524595,0.06375001709687342,0.621929024289912,0.5152255006266387,0.03319067549191984,0.6680140100868525,0.3411256536440216,0.5425243697126211,0.6437623670671707,0.8324345003182386,0.5323116533937917,0.043933658882478736,0.4695669170460339,0.31230720434352266,0.03770426175537308,0.5923886668796983,0.2103518774259724,0.6158930901397139,0.7703609567417156,0.7887490844988908,0.5785721909066215,0.08173488276098873,0.06393280336548274,0.029711677128369272,0.7631111913657798,0.06382397018288395,0.03932271248628013,0.5712117966061969,0.6337469557773359,0.7934780422963816,0.8171399955446749,0.6086644415349463,0.7259957407023092,0.048734166599961264,0.5291936643397925,0.7097479614774256,0.10445593873095856,0.7537980570953032,0.5263131493693348,0.3537698433785834,0.47184584469412305,0.5293966647922999,0.8194633326457221,0.6240657080103451,0.2993690469189527,0.5619644567134483,0.7238053931938505,0.670288391830072,0.29765112839650504,0.04891522790407051,0.5587698314592123,0.0040756717883260185,0.6210269466037827,0.8290229492458796,0.32861550407421086,0.4327856989844157,0.5116578437713675,0.42681425281375396,0.008016197376300502,0.4723289980152409,0.523844291517096,0.5481152527911674,0.47037664258243206,0.5358763727652186,0.7406566494660779,0.5836638132399115,0.5561474869586573,0.04130127828675482,0.579436970374355,0.6012826720775193,0.04177624121411534,0.8482038547683369,0.7611366115073267,0.6106217173507718,0.03614488198736043],[0.5324383247633008,0.7057059455931634,0,0.809390543265396,0.313705254092273,0.7576202376396002,0.05684275824061316,0.6662682735170187,0.6445598758118156,0.245942867518165,0.6681050574241757,0.06028654457244093,0.7051958145678398,0.7550232534294743,0.7608528775176763,0.6468315636705596,0.6488157191496107,0.6854392534079392,0.6832027181628887,0.618563865555286,0.6156289431632105,0.4549404404232771,0.22107021313458788,0.3360792226675773,0.8140046911978214,0.6598268101593503,0.7428859619247041,0.6170721563409098,0.6699916033700921,0.28769727954913,0.6168222182002892,0.3136767335554373,0.44429150683220886,0.09633694056505304,0.3208440842967605,0.6520655163273348,0.6600029968888944,0.6785294598432796,0.3234994415297432,0.7708924161133366,0.711320604291242,0.7303948077448412,0.32721345566279353,0.12192527730335068,0.39914156043907156,0.4015736533063699,0.33187534335380814,0.6983172923138351,0.6734265384200696,0.39459548211239137,0.8108233948492941,0.06110315701902722,0.7468951407870453,0.7932825319526343,0.7854262561845808,0.8421150883705721,0.5404102730841333,0.6874240182514404,0.6520292886289478,0.3304429185478546,0.10091389982057546,0.7276769793765752,0.8198092464257932,0.7306165619990413,0.7286993681642115,0.7109394133293714,0.8008279400058289,0.3559902957050287,0.6431031254496666,0.6846291960211082,0.3996985676083579,0.7084063233019172,0.7156893975135252,0.7877212733905702,0.8305735676923988,0.2960967680755075,0.7018009807598855,0.787755175002632,0.08733816374821571,0.7667980183519315,0.7704992669765492,0.7493639818086263,0.3867769834231761,0.3540893788338869,0.7459819387949582,0.3250440305135992,0.05304628647249617,0.7421255930738182,0.7420052107056825],[0.4181802068143031,0.5058149460370986,0.809390543265396,0,0.8817603497145912,0.09279015571050162,0.8227795547956557,0.14384293291654973,0.30765421890581063,0.5852679715860359,0.14292236374548772,0.8295556177698069,0.16312812916899425,0.4694719218774594,0.16279478026985267,0.47211680878837653,0.2577425472643658,0.13884872223953565,0.5300989750102065,0.3275656972107766,0.2227707883229691,0.37426775490325614,0.6178873931119865,0.7122078173725421,0.02606214324176265,0.49529357863374257,0.064489719240217,0.24008845089941763,0.484342319811176,0.8783243641537676,0.325003949860409,0.913720773578383,0.5647960818599135,0.843312231102753,0.883942496069201,0.43882927721488374,0.4549843672565153,0.5193984290555224,0.6442429142127031,0.5072335856281728,0.5475005978655738,0.13736007348861215,0.9360979647474494,0.8255762195777456,0.6489636460663217,0.9516298264841828,0.6019107968172673,0.45474159056636193,0.15946005166437302,0.5410229944685957,0.5113997375021475,0.8220200794183681,0.08154176654284424,0.16247942733990078,0.03266517574046529,0.031171418540493222,0.5504426590443817,0.22705071560806125,0.7806960372349725,0.8737199962328122,0.7592002354658981,0.244952405004452,0.24432790817826305,0.55451545529506,0.1273015674811058,0.5103328845232962,0.13738578203379004,0.6937747369933622,0.8047570703188893,0.12505993238271318,0.4135988313684688,0.10660644775849006,0.5044025506369851,0.03167422233226422,0.020333790367888186,0.8400832567017082,0.10572855614170634,0.049230556923233054,0.7852431683990447,0.11850291058431371,0.08589688187669862,0.5121351492105938,0.9192299216719827,0.9218896950873136,0.4947778808927617,0.7394379144403919,0.8538205006337082,0.16776118342600502,0.4991754402373343],[0.7437698157533523,0.5804666001683058,0.313705254092273,0.8817603497145912,0,0.8622053569935164,0.37153556809799787,0.7382975400273107,0.8228694289309855,0.47234635968686706,0.7642845519585557,0.37344624385021663,0.7356084842385542,0.6443010457579894,0.8918578372197541,0.5422142104070238,0.807656329322948,0.7923403307052201,0.5480314978979742,0.8023979992013235,0.6579268449804845,0.6154334529702251,0.4653943180961971,0.6353713155217741,0.8960124156608174,0.542563103581907,0.8173926394125162,0.6454180722645254,0.5568982032843008,0.024670009646497775,0.5943151817007765,0.033248184437300224,0.703593093184714,0.4081322650040247,0.004791400230636371,0.5628254819173459,0.561881867389036,0.5485165146194596,0.6038117454942217,0.6444926098687219,0.5675214751870608,0.8498038974630026,0.05360591387379543,0.4375753370994838,0.6827761880296488,0.09118828948853969,0.5967378069645077,0.5963645603726299,0.7888174329791149,0.6410260824288632,0.6842024079032843,0.3760686933306212,0.8439667729028499,0.805604468109435,0.8501305367217814,0.9150125991347566,0.7964227697744406,0.8382496739945761,0.4056502335048822,0.020592491638642442,0.4066079708753394,0.8868205226592235,0.7995503738551996,0.5837376646928951,0.8434806185011078,0.5835108731280535,0.9220721880468005,0.6509637972627927,0.3863723907699807,0.7566195164315097,0.5496770993342648,0.772770031199387,0.5907230205007622,0.852020935991101,0.9044789172277129,0.03945219260982471,0.7861853737216831,0.8782942414520103,0.4006659743156089,0.8821098549087003,0.8737773215053571,0.6206430337248673,0.07093447943978055,0.04496777867888595,0.6246200970555887,0.6299368695571324,0.34868580643329605,0.8744061833627668,0.6187994202948366],[0.32884963861201477,0.5512773627043606,0.7576202376396002,0.09279015571050162,0.8622053569935164,0,0.7652665744294187,0.13412488861586122,0.21326540083471315,0.5226996960988405,0.09555901879492251,0.7718776839088353,0.20298429179212138,0.5241745408435629,0.07320719010243776,0.5085242622832309,0.16480639476388934,0.07023915340734263,0.5712064082259316,0.2342981696861295,0.2270944922951598,0.3068840396791432,0.5545029678753188,0.6312028179145216,0.07496531587197373,0.5335558507966179,0.08222639953329429,0.25204534777905796,0.5245613338222969,0.8559353618762776,0.3512318995866839,0.8923473271053598,0.4780296248422652,0.782509856994004,0.8651020570726348,0.47651055493253225,0.493978384351964,0.5601016039558159,0.565594773716029,0.5626573065311876,0.5922708678070342,0.04253376342902449,0.9148609800221797,0.7619636614529669,0.5640213198931472,0.9381064005947909,0.5242479068925467,0.5005441605254062,0.08267254381563059,0.45984042686953314,0.5724036075859977,0.7640742021066341,0.022580689968730756,0.23748793408870095,0.1046726809370624,0.1101159020081206,0.45796883204183114,0.13216941161053147,0.8067926030998138,0.8565160991460454,0.6985536044295295,0.15128879585881394,0.32129561665216944,0.6018404880130956,0.0342461294343367,0.5564609975286723,0.06808262234538641,0.6114593676592046,0.8284679452255933,0.1202943392565337,0.3557926006848981,0.12208678193148295,0.5514941252039145,0.10604969147914176,0.10079165336264972,0.8203769940245604,0.08261211244033394,0.042654013396426556,0.7249869204246465,0.030699522677882733,0.010553096039301166,0.5641072573364184,0.9060663023478722,0.9047364813643861,0.5469855940950853,0.6590971419351477,0.7986074744185185,0.07412817422964108,0.5505819453317249],[0.5184593141185794,0.7516269873854833,0.05684275824061316,0.8227795547956557,0.37153556809799787,0.7652665744294187,0,0.6823915759888153,0.6371063456351486,0.24229837789110079,0.6792798903311461,0.004537500968192673,0.7283015821854938,0.7985618285810306,0.7626575537556542,0.6911920314154284,0.6461933123456857,0.6939671716117236,0.7305498494910535,0.6102162112089258,0.6386113627398565,0.4577684642305506,0.21279910153222348,0.29288060672966665,0.8254013586904995,0.7054742225870472,0.7569703657450318,0.6425142840212366,0.7149931945665688,0.34524664925104154,0.6506089045143906,0.3698704411366275,0.4166703352875101,0.037864236079482555,0.3786967855065686,0.6944345344760825,0.7033490526920562,0.7253632308102137,0.29079910371064277,0.8161585806031609,0.759267177626391,0.735319505447967,0.38234587532505854,0.06375838962119054,0.3625474553728139,0.4580538381948492,0.30596074343027047,0.7415355177543695,0.6803668512513799,0.37343253735635057,0.8556892635978524,0.0022683189358793034,0.7563134192360845,0.8180113508657524,0.8006967934716609,0.8549117746336747,0.5118272714329604,0.6859525013902755,0.7092899312987352,0.3887791841384436,0.0702779768789235,0.7234598569633743,0.8495657476605638,0.7786805232912525,0.7346697669015249,0.7570463394046765,0.8041681090826215,0.31477255738517956,0.7009743019699183,0.7003592027400292,0.4079057082294877,0.7251363881557199,0.7614485819899031,0.8030326905174578,0.8433390163663715,0.35500735723846916,0.7146933398598923,0.7978299662648837,0.0458672976430652,0.7719814818112196,0.7782029052376611,0.7951514201778035,0.44434916493554266,0.4108775008406908,0.7909345326307214,0.27858650289185205,0.038005088782206445,0.7439613692595,0.7872269758765954],[0.3360144958408461,0.42442460951228445,0.6662682735170187,0.14384293291654973,0.7382975400273107,0.13412488861586122,0.6823915759888153,0,0.2630995171690244,0.45018043830497906,0.05569291191762912,0.6892347826227423,0.09457305898208844,0.4050684927331616,0.1940720911747166,0.37709834623197264,0.21061443808336405,0.08865458350503148,0.4415006048209087,0.2717848516453393,0.09060002123307681,0.25000358368624914,0.4830935417501733,0.5988317082729381,0.15544314938113704,0.40275784318520436,0.07742342707493628,0.11624515140475071,0.39489067463051836,0.7340016522789823,0.21776088316190867,0.7697274294618279,0.46789344769491376,0.7048885833894465,0.7407221600259912,0.34611967159850093,0.36403910592684796,0.4302909441862323,0.5277599665503699,0.44344884935496165,0.4644772943514068,0.1452713808792454,0.7921692417159364,0.6893003040074063,0.5451611330762123,0.8105785942460958,0.48459784221343527,0.3747154918054745,0.10482425988541277,0.4316354598549952,0.45859782485589384,0.681885820019867,0.11092561336850093,0.1719069047949528,0.11693972254894622,0.1773776347747942,0.4755678691829952,0.20244801230906997,0.6709386320296831,0.7310707554800612,0.6211092404323576,0.24528130070215398,0.24489512486954879,0.47560138668378416,0.13333962661176885,0.4299812598309698,0.20385657297851817,0.5832725595087439,0.6922747204883525,0.016398759487181242,0.27785587399521816,0.04073725922515059,0.4257454368818803,0.11920227234794119,0.16621649080324702,0.6965164057916046,0.04933100634920224,0.13887962971637474,0.64673798877977,0.16335206134174612,0.14284435173112503,0.4418718055737244,0.7782973173037334,0.7793216380400603,0.4252372674695407,0.6244393272314374,0.7120971562305577,0.18411699358508102,0.4281096806958361],[0.13030743525582428,0.668868273949419,0.6445598758118156,0.30765421890581063,0.8228694289309855,0.21326540083471315,0.6371063456351486,0.2630995171690244,0,0.3962497247838136,0.20771557999261206,0.6430153153654415,0.35990878262496306,0.6604449394292797,0.16096969926149202,0.6124886151857394,0.05096269074516397,0.18417912869625017,0.6792406124685612,0.025770930956343915,0.32793783664816034,0.20507061191619136,0.4228478778641432,0.4451562026946974,0.2903048395708322,0.6389378748294922,0.27351082292293577,0.3564600487917082,0.6343151642516264,0.8102258510274554,0.45621429521784207,0.8474480219736207,0.280204326694522,0.6451711199371216,0.8273080407588836,0.5857196741259708,0.6040007884068156,0.668131159222108,0.38863100499467684,0.6979977951245753,0.7059434470900289,0.16834608021343742,0.8693693966496296,0.6181107520577493,0.3688956684303736,0.9096519628995499,0.35240404272989817,0.6224255599917414,0.1622605657383453,0.281028019683002,0.71749487858792,0.6348464699117591,0.2248953291705643,0.42686942831940217,0.3120467867586573,0.32519742447318495,0.2446586257350337,0.0791855625860207,0.8716125261959666,0.822927165441163,0.5652459479849337,0.0903781638598383,0.5064060772995427,0.7198256683638701,0.17796811842792806,0.6749512036040235,0.2059266771852291,0.42236058889520567,0.887285021057673,0.2650144905376748,0.27081081840193855,0.2863909133740203,0.672105082799387,0.3139626780982834,0.31631503279826484,0.7826575099064793,0.23970574778714093,0.258284626138989,0.5914542945256733,0.19550897002721948,0.22250861964380916,0.6929951507467093,0.8797051005816549,0.8691870833661778,0.6773255510056341,0.47408903517784146,0.674972098416214,0.14690204318549535,0.6792311657955358],[0.28695507388759084,0.6187475893300748,0.245942867518165,0.5852679715860359,0.47234635968686706,0.5226996960988405,0.24229837789110079,0.45018043830497906,0.3962497247838136,0,0.44029496183706385,0.24865891725904632,0.509097206219121,0.6503844536080784,0.51799179384795,0.5529719002345096,0.4021642715495662,0.45234133155405554,0.6074012054100515,0.37024674567760013,0.4215491907175053,0.21382005870109907,0.03054345888078323,0.215416440243752,0.5856907466490748,0.573623851327104,0.52084479946415,0.4317646901961054,0.5788979549435994,0.4532240753347045,0.4666386556905932,0.4886193363229277,0.22963605921994076,0.2574354239947026,0.47827513375342684,0.5455162587659238,0.5589475225044155,0.5993587748309386,0.15385382874494108,0.6764956257685816,0.6382989959950651,0.4913901978229934,0.5084637385504561,0.23794298342201453,0.22623218111631566,0.5655335292580408,0.1303346069688163,0.5943794715836176,0.43764382597150636,0.1663169790483422,0.7122366513376697,0.2406507782400421,0.5151150967622495,0.600834937790056,0.565805144948706,0.6165238862433925,0.3216909712479207,0.44158600847621643,0.6767307512805484,0.4794873061109771,0.17360243762382502,0.48025690936358645,0.6451775434810635,0.6574539020314591,0.49121378129216176,0.6249655305797903,0.5596875339603565,0.2175172216531302,0.6792501156895242,0.46725450153978476,0.17005578944366936,0.4933034361463083,0.6271261742500548,0.5681781908786813,0.6049802974778569,0.4378768131985164,0.47741805410495797,0.5570087865812418,0.200114782411811,0.5280926820148341,0.5356327575067015,0.6593603822409744,0.5404558004309897,0.5195293202332053,0.6506496086726221,0.22807782816736027,0.2783159514151496,0.4993017505266165,0.6486061396902723],[0.29160270634148033,0.4810636475949509,0.6681050574241757,0.14292236374548772,0.7642845519585557,0.09555901879492251,0.6792798903311461,0.05569291191762912,0.20771557999261206,0.44029496183706385,0,0.6860100665456862,0.15060883716750464,0.4629670082478998,0.1420300828062482,0.4320678566975101,0.15463795210077855,0.03251199812997709,0.4971342254201573,0.21864360136284358,0.14126831291687594,0.2291615152857511,0.472830575904274,0.571084684699377,0.14376356185412248,0.45798393793441194,0.08191884996539056,0.16905807732238007,0.4506467586278876,0.7581366060686614,0.2721416003731581,0.7945016605426322,0.4307883094528658,0.6989150666120811,0.7671669528748563,0.4017037972383811,0.4197665322386891,0.48590457055426506,0.5018316045126294,0.5013092800828355,0.5207664267786456,0.09324963660421146,0.8170139430132867,0.6806226293208503,0.511823765216852,0.8402483157448555,0.4591149126088633,0.4317083272389484,0.04674563432903386,0.40091061671172584,0.5166744679779026,0.6783834551493428,0.07850114317066273,0.21893222883295602,0.1279119259693952,0.1738437529442116,0.42986937236072503,0.14442329608582177,0.7206953220107579,0.758572630745051,0.6147714740246115,0.1874825313912421,0.2966856810686095,0.5323169279525455,0.08295384017885431,0.4867094447807037,0.15973838774126922,0.5537578408160088,0.7410313161919775,0.0549205718206189,0.2692318725677733,0.07753694462171427,0.48266085931711245,0.13027627798039565,0.1622996694993935,0.7224539388869315,0.037832228079260656,0.11760945542416652,0.6409307822867195,0.11851153909820121,0.1071556719713906,0.4994060352369069,0.8082348128725086,0.8067920301578217,0.4828552744497353,0.5977652644532879,0.7111553021583553,0.1299069776982131,0.48562711757444377],[0.5239710432943067,0.7578913053452226,0.06028654457244093,0.8295556177698069,0.37344624385021663,0.7718776839088353,0.004537500968192673,0.6892347826227423,0.6430153153654415,0.24865891725904632,0.6860100665456862,0,0.7352213382590482,0.8049937946076258,0.7690352722634309,0.6975615141385467,0.6523755441959831,0.7006160235657842,0.7366965717659539,0.6160772116760946,0.6455317738857554,0.46425814043393065,0.2189776110325186,0.2953200052255129,0.8321249931412764,0.7117545928066943,0.7637670155139368,0.6494368024080127,0.7213212526240039,0.34704377151022175,0.6574285489161603,0.3711399451136216,0.42103963492367097,0.033665327784455974,0.38061477521407683,0.7009262747254965,0.7097844899015215,0.7315527254006439,0.2947484529144384,0.8224767290993443,0.7653635334224302,0.741833226835264,0.38327533481082626,0.06267023030422611,0.3658957326507435,0.45937602825993584,0.31063059213635097,0.7479823080108473,0.6869634663338846,0.3784648915443191,0.8620385165171515,0.005797469823820937,0.7629839973522614,0.8249345087211238,0.8075164141362636,0.8616710708911831,0.5160265110272398,0.6921857474899701,0.7138649456669998,0.3909493061843202,0.0757373024019468,0.7295391245860339,0.856463634599154,0.7847678799424663,0.7412238522290701,0.7632968970474776,0.8106079944861303,0.31750400708271925,0.7053264798129825,0.7071939214423363,0.41460066900963555,0.731987769310158,0.7677260182638072,0.8098530250258407,0.8500982243685663,0.35760662005966415,0.7214650191247195,0.8045170686418397,0.05060446338893331,0.7785007849044941,0.7848146528108717,0.8014296183187894,0.44610994784954655,0.4123332254196796,0.7972728958114843,0.2804548600171373,0.03421095712928177,0.7503432116566614,0.7935460008702336],[0.429432865439943,0.346967105370836,0.7051958145678398,0.16312812916899425,0.7356084842385542,0.20298429179212138,0.7283015821854938,0.09457305898208844,0.35990878262496306,0.509097206219121,0.15060883716750464,0.7352213382590482,0,0.3189821256353003,0.2742165681651728,0.3083885531251056,0.30720533652685555,0.1799211722633948,0.3686492843551318,0.36870134362656,0.08732940796943847,0.32722920131732924,0.5417742708887897,0.6762091242348346,0.18704270942255585,0.33237201253941456,0.12022703304470303,0.08939337558064084,0.3222841119276531,0.7348510904231371,0.15977039633594553,0.7689300928023698,0.5551824316190899,0.7545508348653116,0.737129965370457,0.2754476215214238,0.2922300229723036,0.35770462554050547,0.603893720889671,0.35749638566780667,0.3882851339825221,0.2280744195134359,0.7909760884919655,0.7428309929925148,0.6285320664996991,0.7998988217991871,0.5607770798474043,0.29599333091628577,0.19894001038346262,0.5136502714405573,0.36879784219872885,0.7283561637095738,0.17808232975023455,0.08945186882879196,0.12807786487476913,0.19206805467423405,0.5691321403695305,0.2964658203748674,0.6153263031067099,0.7255759034687069,0.6723170400628394,0.33607693974496916,0.1506169176221619,0.3971404579515153,0.21511118728425765,0.35197183486600425,0.2720384256261242,0.662606210410872,0.6392590827493921,0.09392004007993855,0.34126733519209046,0.07982388134715705,0.3467481825394981,0.12913795161243016,0.18399563234778502,0.6945013594907632,0.12732976596018739,0.18697580132017275,0.6968727514332156,0.23582436299073678,0.2071054240993122,0.35874309655716247,0.7674474229279028,0.7732851966919586,0.3416156309471835,0.7004679924825941,0.7545252631963897,0.2680677680448098,0.34523168266746473],[0.6951401057663105,0.0644240211471056,0.7550232534294743,0.4694719218774594,0.6443010457579894,0.5241745408435629,0.7985618285810306,0.4050684927331616,0.6604449394292797,0.6503844536080784,0.4629670082478998,0.8049937946076258,0.3189821256353003,0,0.5953760823743421,0.10646930024816276,0.6111487937043695,0.49590752981850345,0.09989659064076602,0.6623935397189707,0.33015495736471795,0.5529871351094165,0.6772198216134987,0.8599302901490962,0.4969608698302221,0.09974778572660874,0.440397380102078,0.3017928210748397,0.08626967704443733,0.6553943926624626,0.20760767350478293,0.6798294297006784,0.7858625918053725,0.8346769279480232,0.6426261016360911,0.10326578190650906,0.09283087484771699,0.09598397148084324,0.7891097233641569,0.03614488198736043,0.09582687854783786,0.5485048496710017,0.6980661922815476,0.8371818394575166,0.8385036329311745,0.6746419838977392,0.750315837452236,0.05481192719466533,0.511968401827249,0.7280409904127274,0.06028654457244093,0.8004767353814164,0.4993387133762751,0.31033834765497137,0.4367754817210615,0.49028566282888425,0.8280375577145207,0.6089092883646919,0.3617333485651442,0.626235651884703,0.7664373155464798,0.6527353772196369,0.24533745182781022,0.09298493589561789,0.5356877839933165,0.06364088262455668,0.5924709175087084,0.8546548641206022,0.39161145579774925,0.41080011833033103,0.5294068115699633,0.4009521582753252,0.05542554874203615,0.43696490542265726,0.485851292398958,0.6110329387463123,0.4471235558047545,0.5040995582243796,0.784631750008761,0.5571081386442739,0.5276725094037331,0.04276253500973416,0.6451667447313925,0.6663037105294005,0.026662415106981495,0.8773798195488216,0.8103798612919083,0.588419563630673,0.032950958559047894],[0.2890127711286376,0.6193386204524595,0.7608528775176763,0.16279478026985267,0.8918578372197541,0.07320719010243776,0.7626575537556542,0.1940720911747166,0.16096969926149202,0.51799179384795,0.1420300828062482,0.7690352722634309,0.2742165681651728,0.5953760823743421,0,0.5734690945373582,0.12351463712475962,0.1074631400765364,0.6375246570237767,0.18641731171158912,0.28496296110627234,0.3035684739366409,0.5482893426518816,0.6012212936545729,0.13920052198950006,0.599029532810372,0.15669928887446874,0.3120543226970134,0.5908659393231753,0.8835064968066483,0.4142096206536873,0.9204233166484699,0.4403357167312498,0.7762772483325954,0.8952626937030291,0.5422534392389565,0.560064970861723,0.6263368664407222,0.5398861370104783,0.633906036483379,0.6598471126198784,0.0466088818389438,0.9428873706108972,0.7528539835435957,0.5284591050127386,0.9716399431942813,0.5005815441565831,0.5690529082302748,0.10314625986159547,0.4320678566975101,0.6451408906395304,0.7610276616255147,0.09615401445877837,0.3130764310132224,0.1794799170422507,0.17162464631439803,0.4076149235280732,0.08279358032175199,0.8650830697305097,0.887940503676138,0.6933318095023586,0.08166136699926885,0.3968765721556352,0.6702907657629398,0.05837962322878463,0.6247281026922816,0.04318273474634332,0.5796715443838449,0.88544069839437,0.18422185183672793,0.3611287990583151,0.19206911430484208,0.620126954447309,0.18069402796937364,0.16484983167547465,0.8502392930077985,0.14660188902058466,0.11133402593837992,0.7198966877401811,0.042159503832849124,0.07561852454582588,0.6342965355427574,0.9400548474250235,0.9358621730448126,0.617328622763892,0.6298264945907891,0.7980403907168504,0.01634452127129375,0.6206550016406814],[0.6286892171181098,0.06375001709687342,0.6468315636705596,0.47211680878837653,0.5422142104070238,0.5085242622832309,0.6911920314154284,0.37709834623197264,0.6124886151857394,0.5529719002345096,0.4320678566975101,0.6975615141385467,0.3083885531251056,0.10646930024816276,0.5734690945373582,0,0.5670928775760474,0.4667484717711251,0.0644047425897916,0.6101740816888546,0.2893705241860844,0.4787385012574334,0.5782720604354649,0.7663566245113775,0.49728734095711036,0.024063472352973018,0.4295759919667996,0.2609195021554824,0.02366263916128108,0.5518190518963683,0.15760530409827733,0.5778442350084753,0.7050971627020537,0.7277412557439392,0.5409945552129409,0.03112495072351746,0.019025881920526646,0.05338929457145355,0.696980591978482,0.12333847611005479,0.09264445227571469,0.52474896827441,0.5968543840724604,0.7313158082689987,0.751136630995523,0.5789955156551222,0.6598711675074235,0.05231287183871069,0.4791017757237979,0.6440959788182975,0.16220118847332532,0.6932099438891918,0.483711112526954,0.3309077215531499,0.4373586781538184,0.4982734767055607,0.7557285434330778,0.5719037603887123,0.3101843361129308,0.5251377813125755,0.6611138131723419,0.6194488067278127,0.288380107897597,0.10911590878427488,0.5127040017013366,0.07011829553529786,0.5788926599678986,0.7628901024962077,0.3367026072861554,0.3873476970816358,0.4462753100993199,0.38463198207530797,0.07177676226901719,0.43812654576571664,0.4916092286659529,0.5074417431712631,0.42540299147741395,0.4973980498313366,0.6785987533564743,0.5401563507202959,0.5145129476010147,0.10431119932393523,0.5484913610358855,0.5670213906594086,0.09769713616009056,0.7822390878220646,0.702228788235065,0.5634676429140141,0.09457305898208844],[0.16434985570513078,0.621929024289912,0.6488157191496107,0.2577425472643658,0.807656329322948,0.16480639476388934,0.6461933123456857,0.21061443808336405,0.05096269074516397,0.4021642715495662,0.15463795210077855,0.6523755441959831,0.30720533652685555,0.6111487937043695,0.12351463712475962,0.5670928775760474,0,0.13090006866766316,0.633676906359248,0.06744762876023364,0.27924848422039483,0.1955298581806334,0.43101419588943823,0.47532695360612576,0.24215312425959243,0.5935156517655119,0.22073916287971912,0.30799135710315334,0.5882486678540707,0.7965507654439123,0.409232518880409,0.8337831889648804,0.3154442190994751,0.6574062982663701,0.8117350469129152,0.5394033775014195,0.5577016965910859,0.6225063300796937,0.4142812393623473,0.648954946576017,0.6597218069449374,0.12033212374914246,0.8559746710404113,0.6324435017287096,0.40316387169609913,0.892219808246738,0.3754284221106054,0.574680390348204,0.10891892790340153,0.3063530854507445,0.6674182284387753,0.6442731655730544,0.17417673702898784,0.3735284723183949,0.2602111231806477,0.2773066498125673,0.29078930829702776,0.03893807086018709,0.8340926984145649,0.8062831611423626,0.5755309159794619,0.07792208890378396,0.4531075211059647,0.6730746966478082,0.12856645457231078,0.6279227071265511,0.16897543021778047,0.4538617546439151,0.8509449806048943,0.21194164469941826,0.2592087661065017,0.23307184270749748,0.6247827453487631,0.2621879454814849,0.26788009302084215,0.766787654630828,0.18637235648150166,0.2097201629218384,0.6020220508718696,0.1512301238287583,0.17506717952998924,0.6447119598449351,0.861612346173849,0.8532906111593259,0.6287986075810572,0.5039260948434475,0.6828224051519863,0.10665121977245408,0.6309194146640861],[0.2802954554116692,0.5152255006266387,0.6854392534079392,0.13884872223953565,0.7923403307052201,0.07023915340734263,0.6939671716117236,0.08865458350503148,0.18417912869625017,0.45234133155405554,0.03251199812997709,0.7006160235657842,0.1799211722633948,0.49590752981850345,0.1074631400765364,0.4667484717711251,0.13090006866766316,0,0.5316734813286762,0.198454494680869,0.17615965351709506,0.23754827074765855,0.4844371115213188,0.571039859862474,0.13288751244929198,0.4926170051702682,0.08920459635492417,0.20388423277384615,0.4851450184974077,0.7854752947094296,0.30687583641523675,0.8220460256326381,0.42452959834398796,0.7119710284899,0.7953951595108648,0.4362414540594614,0.4542680303900251,0.5204478184106778,0.5034044056904294,0.5343266257927488,0.5550901055461837,0.05904127417089778,0.8445591229355616,0.692206123850388,0.5080047246724279,0.869605770956409,0.46126638546124316,0.4656635692660854,0.020151675446852844,0.39980309468085035,0.5487974507240483,0.6928614270269514,0.0605326411831238,0.24042812506685438,0.1322784754013687,0.1661920469180095,0.4161050831581915,0.11445082741330131,0.7554319087647592,0.7872125745407187,0.627903153929148,0.15461170549381417,0.32087994007746645,0.5664435572917351,0.04983578060220719,0.5208255027566573,0.12822584646245852,0.5525403501194993,0.7756458074015177,0.08381552920453952,0.2839681387780995,0.10122497545131759,0.5166690840842048,0.13448130309687595,0.1550559122251894,0.7505467760745425,0.05333916814198808,0.10263235917513322,0.6542634287342335,0.0875388817338336,0.08295384017885431,0.5329066760197412,0.8377194980921693,0.8353649495968101,0.5162569636346351,0.5983520717748226,0.7269156218214223,0.09501580102541103,0.5191466229215519],[0.6945457088389192,0.03319067549191984,0.6832027181628887,0.5300989750102065,0.5480314978979742,0.5712064082259316,0.7305498494910535,0.4415006048209087,0.6792406124685612,0.6074012054100515,0.4971342254201573,0.7366965717659539,0.3686492843551318,0.09989659064076602,0.6375246570237767,0.0644047425897916,0.633676906359248,0.5316734813286762,0,0.6769616628898626,0.3550980059426584,0.543602006277854,0.6312370250970614,0.8228504530230066,0.5560539598461612,0.037985954030817136,0.4908436573253451,0.32648446394758857,0.044289281759441315,0.5605982048997203,0.22323833983246782,0.5833517150065982,0.7677059511276288,0.7682345957745224,0.5459611811200313,0.09304689551068329,0.07508160428697637,0.008849451683709542,0.7545657385133941,0.09408037180788889,0.028594500736870032,0.5889947391919211,0.600886237075985,0.7743354269556386,0.8110846495960736,0.5743661550123159,0.7185227935984498,0.07623732202943141,0.5445601348012307,0.7057358445057453,0.13408148634483094,0.7328780680989201,0.5462959563660763,0.38177443544682327,0.4957260687769812,0.5547957242004212,0.8204517928757464,0.6379773064931663,0.2657090252202267,0.5291873897345328,0.7054728217228041,0.685203678348844,0.3292490354169194,0.04768627430707622,0.5767854628077752,0.0342461294343367,0.6413646530817172,0.8205159745422193,0.2945550454925058,0.4510218327036058,0.5089017121179508,0.44687019621975677,0.04225855548611659,0.4963348912011568,0.5487778943007728,0.516435711810282,0.4889429626686911,0.5580073976066705,0.7214536860946003,0.6032051356924878,0.5766893978405164,0.07024252247587966,0.5453836778553174,0.567853078009193,0.07552915704189399,0.8376145940518842,0.7385781098696232,0.6280027933082568,0.06927862367281933],[0.10241139724872027,0.6680140100868525,0.618563865555286,0.3275656972107766,0.8023979992013235,0.2342981696861295,0.6102162112089258,0.2717848516453393,0.025770930956343915,0.37024674567760013,0.21864360136284358,0.6160772116760946,0.36870134362656,0.6623935397189707,0.18641731171158912,0.6101740816888546,0.06744762876023364,0.198454494680869,0.6769616628898626,0,0.3301990638356957,0.1850910314622335,0.39634155870148274,0.4172453218056293,0.3116354765250753,0.6365950379292565,0.2893749381492156,0.3582872075232368,0.6326175921527967,0.7891949604971095,0.455936851703184,0.8263771738243508,0.2528559263175718,0.6178106312339713,0.80696925678369,0.5843775480494889,0.6026008764966095,0.6659315281832628,0.36047916644031447,0.6995593183289291,0.7042783491755923,0.1895829641856995,0.8481809018851068,0.5905062644064902,0.34146585345068303,0.8899629889998478,0.3242785821888727,0.6225439189260032,0.17603129179279015,0.2528732316515751,0.7204480761781381,0.6079027241383662,0.24400296660777096,0.4396079054568832,0.3296829345254939,0.34673490337022217,0.22143524130808437,0.10252193638706687,0.8625187066171244,0.8030087221319478,0.5382141387854378,0.1184156321017446,0.5176035070902918,0.7186900322781328,0.19824798247911157,0.6741826289469898,0.2317357064975489,0.39457536873817967,0.8773739642814214,0.27551250664001187,0.2507391566076077,0.2983430449184327,0.6716616527905033,0.3316905162598713,0.3374576932764023,0.7624813910506771,0.2531102420637261,0.2792914180109173,0.5643605150894213,0.21881698604950992,0.24423079964311192,0.6936211802573286,0.8603098821155796,0.8489317878691296,0.6782703031472234,0.4461587590213458,0.6482669234326072,0.17144078805565174,0.6799124830424673],[0.3725714527125936,0.3411256536440216,0.6156289431632105,0.2227707883229691,0.6579268449804845,0.2270944922951598,0.6386113627398565,0.09060002123307681,0.32793783664816034,0.4215491907175053,0.14126831291687594,0.6455317738857554,0.08732940796943847,0.33015495736471795,0.28496296110627234,0.2893705241860844,0.27924848422039483,0.17615965351709506,0.3550980059426584,0.3301990638356957,0,0.25138055813401106,0.4540385290341555,0.5961667156659586,0.24007267634103,0.31550746276735897,0.16181412465958814,0.02644123527408995,0.30892033799597435,0.6554895159795238,0.12948020786214354,0.69040500327736,0.48551830409104096,0.6650384278317714,0.6598991688628846,0.25987742981836986,0.2781001946949496,0.34386496994606497,0.5234060285483096,0.3676761670124779,0.37982796613085096,0.23596915104136085,0.7126813219924023,0.6537273353658382,0.5537652275609094,0.7265719662143709,0.4806116562484391,0.293210328276002,0.18743368999443008,0.43857827797582283,0.3878641864391765,0.6386824197878819,0.2036641004497876,0.17774097992626028,0.19012564802162332,0.2555502588004845,0.51054179286828,0.28069607325763546,0.5783274374836612,0.6492886074255628,0.5830029767682589,0.32773504536110476,0.22508784043882477,0.3924004527028218,0.2246628977370635,0.34700540368464117,0.29680007046593876,0.5840741741573388,0.5994250937960012,0.10543979150055294,0.2567336727017494,0.11481399970095964,0.343577087822265,0.19194615861619227,0.24541765307422966,0.6163969459860528,0.14216912699966752,0.22847640482520196,0.6074341502180244,0.2561525306060686,0.23558961831901162,0.3630783797091495,0.694158000026131,0.6973782207766814,0.3472043841367803,0.6194119420649035,0.6648287906546748,0.27351082292293577,0.3492868816048958],[0.1540301196352815,0.5425243697126211,0.4549404404232771,0.37426775490325614,0.6154334529702251,0.3068840396791432,0.4577684642305506,0.25000358368624914,0.20507061191619136,0.21382005870109907,0.2291615152857511,0.46425814043393065,0.32722920131732924,0.5529871351094165,0.3035684739366409,0.4787385012574334,0.1955298581806334,0.23754827074765855,0.543602006277854,0.1850910314622335,0.25138055813401106,0,0.24532700244342165,0.34733329247807465,0.3722244020173617,0.5041097286941275,0.3124554326827614,0.27164860142203723,0.503709849967793,0.6028099600068426,0.3446421386834957,0.6400393696635075,0.23369671259543714,0.4735698165951925,0.6199013598278491,0.4592494781459723,0.4764116656522953,0.5333011074286474,0.2756729858833014,0.5866321629741186,0.5733975269820842,0.2752410005123119,0.6619955000226396,0.4526968984209653,0.30012196130764934,0.7025653486153716,0.23246943840352863,0.5040685116022209,0.22186296949766313,0.18491757321540322,0.6150059934745575,0.4563361521298332,0.30046659160125133,0.4170874579137776,0.3583463671630431,0.4042845032797555,0.27461128646876126,0.231851355787344,0.6958973981722666,0.6156922870591717,0.3898082705934529,0.2758080520595601,0.47688212831960985,0.5902390378375644,0.27502461630034725,0.5489689894653219,0.34420846313374837,0.3330637568096291,0.7077875606389761,0.2648604772784461,0.06337900426580363,0.29203080580006086,0.5483107638536281,0.3607310587255339,0.39285022853263957,0.5753000777459026,0.26816769709525773,0.3425571363614239,0.4163173612765667,0.3119321281130195,0.3197985737384867,0.5755456898741584,0.6728469949696456,0.6618075298555159,0.5624950769628739,0.372418961794924,0.49247805892029123,0.28483838761618135,0.5625848936644158],[0.3090551684957336,0.6437623670671707,0.22107021313458788,0.6178873931119865,0.4653943180961971,0.5545029678753188,0.21279910153222348,0.4830935417501733,0.4228478778641432,0.03054345888078323,0.472830575904274,0.2189776110325186,0.5417742708887897,0.6772198216134987,0.5482893426518816,0.5782720604354649,0.43101419588943823,0.4844371115213188,0.6312370250970614,0.39634155870148274,0.4540385290341555,0.24532700244342165,0,0.19809509458778943,0.6180617486769905,0.5982967613535183,0.5535911614307857,0.46386827605707986,0.6040891085949821,0.444989361714538,0.49651344625068644,0.47951777177931887,0.23668886724637306,0.2259862234893615,0.47158401817600804,0.5719980249439255,0.5849861498118311,0.6234865483941252,0.14395412088409043,0.7025000188809846,0.662034266131007,0.522615394337058,0.4986462086001492,0.20548009718948987,0.22069546679721322,0.5589304533898821,0.12932160933813164,0.6208885263562879,0.4694484771514387,0.17779666570477642,0.7387682250676667,0.21088150632881209,0.5472659537626292,0.63347805355181,0.598606691286508,0.649047056417673,0.3313271925792024,0.47084937675008587,0.689792046944625,0.47400418704439057,0.1426579283723996,0.5083775409822847,0.6771368750556576,0.6813077775485796,0.5226972435183523,0.6499175718211563,0.5903850714467476,0.2037453968798984,0.69093352147065,0.5001461598487641,0.20293286572791303,0.5262162682353511,0.652342107045555,0.6009809254239395,0.6375105694600726,0.4327011430165368,0.5100997177475444,0.5892121144006591,0.16922325212282904,0.5593249522652846,0.5674283685221851,0.6848740186828873,0.5351034834380274,0.5122163129243192,0.6766272620850448,0.20739046622111076,0.2499013603418222,0.5296349055661024,0.6743920517287086],[0.3124677034990627,0.8324345003182386,0.3360792226675773,0.7122078173725421,0.6353713155217741,0.6312028179145216,0.29288060672966665,0.5988317082729381,0.4451562026946974,0.215416440243752,0.571084684699377,0.2953200052255129,0.6762091242348346,0.8599302901490962,0.6012212936545729,0.7663566245113775,0.47532695360612576,0.571039859862474,0.8228504530230066,0.4172453218056293,0.5961667156659586,0.34733329247807465,0.19809509458778943,0,0.7047832599643346,0.7879911420813588,0.655373306664872,0.6126665950353984,0.7923918430409068,0.6117950304926464,0.6657973800043735,0.6426309133519577,0.16635369272102213,0.2758459625189525,0.6421427705615077,0.7564600599002212,0.7708445012975227,0.8144487790471262,0.07049811600376842,0.8880348505353186,0.8538174924481504,0.590860729458927,0.6588693206556548,0.2393577605133684,0.0824062628539553,0.727853355428184,0.11319202027066187,0.8050256949929671,0.551167588655842,0.16905807732238007,0.9223644166021596,0.288581160713453,0.6316320117156887,0.7666356150136795,0.7013041054409894,0.7390680526634499,0.24510668294396676,0.5162153461916523,0.8900322152037929,0.6477984616792036,0.23309366459127176,0.5379000034888487,0.8235608156918205,0.8727934523608025,0.5952661984512934,0.838743781785771,0.646681583405718,0.023710550995847082,0.890630061707427,0.6127717797569205,0.3396016941684131,0.6400538628249606,0.8404316937466736,0.7036569355504302,0.7281566226273718,0.6082533966510453,0.6112243531882812,0.6728615659048155,0.24816489226923685,0.6255928940569281,0.6433313239299114,0.8720029678189668,0.7080137614253399,0.680012209197121,0.8623341000804859,0.026635802782692838,0.33163411516063085,0.5842120608939974,0.8607173137666098],[0.40558849509168693,0.5323116533937917,0.8140046911978214,0.02606214324176265,0.8960124156608174,0.07496531587197373,0.8254013586904995,0.15544314938113704,0.2903048395708322,0.5856907466490748,0.14376356185412248,0.8321249931412764,0.18704270942255585,0.4969608698302221,0.13920052198950006,0.49728734095711036,0.24215312425959243,0.13288751244929198,0.5560539598461612,0.3116354765250753,0.24007267634103,0.3722244020173617,0.6180617486769905,0.7047832599643346,0,0.5207871287451581,0.07642055944033103,0.2593859315459882,0.5100997177475443,0.8918285016466609,0.34794036432398345,0.927531029921366,0.5540050929368666,0.8447478918255247,0.8983819419493849,0.46412076843610606,0.48050773973679506,0.5452815639797272,0.6379492314187869,0.5348270125391795,0.5739631153442795,0.11972015744562936,0.9499663842755154,0.8259274008987496,0.6393294058229487,0.9674805051893941,0.5960457221773384,0.48120371641467635,0.1514446708113498,0.5333491619836908,0.5394433089651048,0.8244848543859669,0.07080843587292125,0.1908920805438404,0.05809070947485067,0.032811833257879175,0.5353196528444559,0.20892103838349999,0.8046386741564053,0.8885680413176112,0.7606051250190584,0.22260027891867323,0.27275936834622466,0.5812989866846343,0.1113454630292751,0.5369190586794982,0.1104519430546917,0.6856436776499456,0.8283142189191186,0.13701526936278186,0.4152407380358668,0.12287504179497091,0.5310992679541053,0.05770597350126271,0.02373965026990424,0.8542482171995961,0.11088014328994371,0.030199068353532275,0.7868226600714054,0.0958819355086448,0.06549886638195455,0.5393934654857577,0.9351385493638579,0.9368011453234305,0.5220425589562877,0.7323748663645375,0.8572927363736693,0.14612719636694566,0.526359987966233],[0.6545625787796088,0.043933658882478736,0.6598268101593503,0.49529357863374257,0.542563103581907,0.5335558507966179,0.7054742225870472,0.40275784318520436,0.6389378748294922,0.573623851327104,0.45798393793441194,0.7117545928066943,0.33237201253941456,0.09974778572660874,0.599029532810372,0.024063472352973018,0.5935156517655119,0.4926170051702682,0.037985954030817136,0.6365950379292565,0.31550746276735897,0.5041097286941275,0.5982967613535183,0.7879911420813588,0.5207871287451581,0,0.4540344942394152,0.2869914350070012,0.012890870162862928,0.5533723898395874,0.18366900822434715,0.5781286809758494,0.729438827028426,0.7425243817082561,0.5410011674726808,0.054690216299389645,0.03792849528407316,0.0270757662469838,0.7190756426092983,0.10877316439702701,0.06690333678842957,0.550374167632326,0.5965787449317017,0.7471649327868871,0.7742883546294688,0.5752630039791998,0.6824276078715895,0.05501420518845306,0.505163274667599,0.6679878845172275,0.1490602862194333,0.7076239027164115,0.508699667504029,0.3510511828024833,0.4606699144247779,0.5208831200245786,0.7810548106910524,0.5981784056693136,0.290854268179968,0.52474896827441,0.6774877132399606,0.6456199981607277,0.3042545139079002,0.08419431158723942,0.5382664491334803,0.049707388093985755,0.6038576097466352,0.7850191185571451,0.31827365898754284,0.4127311291825559,0.47057597113338345,0.4094545934292584,0.05359211215509023,0.4613746967808817,0.5144725850350427,0.5089999343919428,0.45074456353724446,0.5216228926977399,0.6943465026967054,0.5653339457652834,0.5393515335139639,0.08729222227339234,0.5453069590314973,0.5654265113330452,0.08446460040573976,0.8033907722562525,0.7152588293490361,0.5892037552926476,0.08000867680356454],[0.3713053989313168,0.4695669170460339,0.7428859619247041,0.064489719240217,0.8173926394125162,0.08222639953329429,0.7569703657450318,0.07742342707493628,0.27351082292293577,0.52084479946415,0.08191884996539056,0.7637670155139368,0.12022703304470303,0.440397380102078,0.15669928887446874,0.4295759919667996,0.22073916287971912,0.08920459635492417,0.4908436573253451,0.2893749381492156,0.16181412465958814,0.3124554326827614,0.5535911614307857,0.655373306664872,0.07642055944033103,0.4540344942394152,0,0.1824316584969384,0.44435100987197296,0.8134163917993185,0.2755052773339635,0.8490277045109403,0.5135508627493814,0.7780745901235554,0.8197218417411678,0.3969829986975607,0.414069129383077,0.4798394144861632,0.5861198047337077,0.4788251105332669,0.5108491118966405,0.11539493291481213,0.8714481302762982,0.760984795984179,0.595491955711354,0.8886741729246964,0.5433763989371968,0.4186051022861489,0.11171851952609012,0.48507157933604467,0.48794743815793656,0.7562811171419846,0.058175614537906456,0.15612195036090437,0.04364388128259292,0.09786735632091241,0.5076513559739623,0.19806939849534586,0.7328854243437409,0.8098359013550133,0.6940237599092148,0.22839053930389513,0.23935967829044655,0.5197469059906279,0.1025171487720713,0.4745833892997551,0.14972388568434064,0.6379499755448045,0.7557285434330778,0.05872599189064855,0.3486902449635874,0.04514124112614518,0.46935356732923617,0.04601758769413483,0.08657463474425738,0.7756458074015177,0.04198076969262518,0.06617446145900228,0.7199573063383408,0.11530097261315413,0.0848905998834001,0.48088404764490733,0.8563323167377442,0.8580620573355014,0.4636859459052595,0.6820698566230219,0.7876616160603971,0.1540644485196411,0.4674479458924511],[0.3979943767951341,0.31230720434352266,0.6170721563409098,0.24008845089941763,0.6454180722645254,0.25204534777905796,0.6425142840212366,0.11624515140475071,0.3564600487917082,0.4317646901961054,0.16905807732238007,0.6494368024080127,0.08939337558064084,0.3017928210748397,0.3120543226970134,0.2609195021554824,0.30799135710315334,0.20388423277384615,0.32648446394758857,0.3582872075232368,0.02644123527408995,0.27164860142203723,0.46386827605707986,0.6126665950353984,0.2593859315459882,0.2869914350070012,0.1824316584969384,0,0.28024078170735184,0.644064503969664,0.10093870566937564,0.6784424736422945,0.5070890203592081,0.6702328700430381,0.6471159548962082,0.2311994979459013,0.24940281721531243,0.3152497095105077,0.5397926550799116,0.3391858245191479,0.3510694007350557,0.26308122909107484,0.7005804659733319,0.6604174274455782,0.5731215507718342,0.7116698325400282,0.49731819037794395,0.26440017279576317,0.2157969484387601,0.45812375581012316,0.35992655517650757,0.6427918156284126,0.22810593367072196,0.17384821051091556,0.20625289916143277,0.2720524566673953,0.5352013261933286,0.30946591759162173,0.5524349808003911,0.6359421130279034,0.589123205751234,0.35633801022013767,0.21120992817495113,0.3635854506990351,0.2515133306969176,0.31818219856927854,0.3221887823302425,0.6014801841878726,0.5740463195201405,0.12946262778282636,0.2713345450908098,0.1349078166657794,0.3147505894917311,0.20787727464428993,0.2624622812973105,0.6041316607856184,0.16709381875266524,0.2503136239452422,0.6130370902868086,0.28190817462765727,0.2599314875004477,0.33435973905037464,0.6792175434625141,0.6838403835859638,0.3185435501067832,0.6352234869488866,0.6673644107712713,0.30106798893528763,0.3205732047916224],[0.6529787718071487,0.03770426175537308,0.6699916033700921,0.484342319811176,0.5568982032843008,0.5245613338222969,0.7149931945665688,0.39489067463051836,0.6343151642516264,0.5788979549435994,0.4506467586278876,0.7213212526240039,0.3222841119276531,0.08626967704443733,0.5908659393231753,0.02366263916128108,0.5882486678540707,0.4851450184974077,0.044289281759441315,0.6326175921527967,0.30892033799597435,0.503709849967793,0.6040891085949821,0.7923918430409068,0.5100997177475443,0.012890870162862928,0.44435100987197296,0.28024078170735184,0,0.5674578162796857,0.17714508670643328,0.5924826295581801,0.7307342648121018,0.7517789619866342,0.5554022710525394,0.046657221858529656,0.028494574709740598,0.03315445867606817,0.7230290011742443,0.09881092076151408,0.06927862367281933,0.5423533074899384,0.6110417351702049,0.7558179579095996,0.7771100252965096,0.5902390378375644,0.6859079164229911,0.039740233695485204,0.4981931394783314,0.6699053897210049,0.13844877672380912,0.7170733026644815,0.4996564558929706,0.33829023331388564,0.44985071517558844,0.509478661603577,0.7807036678755096,0.5919342972880924,0.30455926402506356,0.5392207961757415,0.6858210768975153,0.6389503447126795,0.28999769695155825,0.08448520877630368,0.5301308981790949,0.044084660022108514,0.5947410621651591,0.7889385380413122,0.3322720911837314,0.4043517588740952,0.47195611136104276,0.40024984665026725,0.0458672976430652,0.450501760451036,0.5032618018848072,0.523074879576604,0.44226876304985924,0.5116419100899384,0.7030529381242133,0.5565402635674002,0.53009026835926,0.07883162744764781,0.560213777968069,0.5801104085704039,0.0736120765048959,0.8082364174311107,0.7254145468734614,0.5813929915794266,0.06988417080134267],[0.7280085311220017,0.5923886668796983,0.28769727954913,0.8783243641537676,0.024670009646497775,0.8559353618762776,0.34524664925104154,0.7340016522789823,0.8102258510274554,0.4532240753347045,0.7581366060686614,0.34704377151022175,0.7348510904231371,0.6553943926624626,0.8835064968066483,0.5518190518963683,0.7965507654439123,0.7854752947094296,0.5605982048997203,0.7891949604971095,0.6554895159795238,0.6028099600068426,0.444989361714538,0.6117950304926464,0.8918285016466609,0.5533723898395874,0.8134163917993185,0.644064503969664,0.5674578162796857,0,0.5969136955768747,0.034860071616313236,0.6837205860873755,0.3815820671664752,0.03177238697562125,0.5712036915650209,0.5710824390494363,0.5605973127840399,0.5818084306219767,0.6570224344942609,0.5810779570745839,0.842219067487999,0.057099422716986745,0.4113389395341579,0.660759613947944,0.11367270551255398,0.5759274295570495,0.6062559004195978,0.781219172399879,0.6218973394973382,0.6970141230210511,0.34979775681376657,0.8382331134527666,0.8068865123587715,0.8471779555388065,0.911696571118254,0.777155556068913,0.82797209632855,0.42787751045370304,0.046027430840461014,0.38175308085051185,0.8760772482890958,0.8036272746993184,0.5977142563310622,0.8362511676423073,0.5956642485786011,0.9146837785218224,0.627834845783745,0.40948895736568147,0.7524599867392143,0.5371539062471175,0.7693703985845413,0.602707385308996,0.8491133563052813,0.9010261608196939,0.04200282443184432,0.7811771483917048,0.8732965549645111,0.37516327760098667,0.8750354898160181,0.8676777668059343,0.633213474817687,0.09672530091020531,0.06585439250025804,0.6365418086070914,0.6057791545543045,0.3219085424176199,0.8658638949171342,0.6308465916740428],[0.48515188634249784,0.2103518774259724,0.6168222182002892,0.325003949860409,0.5943151817007765,0.3512318995866839,0.6506089045143906,0.21776088316190867,0.45621429521784207,0.4666386556905932,0.2721416003731581,0.6574285489161603,0.15977039633594553,0.20760767350478293,0.4142096206536873,0.15760530409827733,0.409232518880409,0.30687583641523675,0.22323833983246782,0.455936851703184,0.12948020786214354,0.3446421386834957,0.49651344625068644,0.6657973800043735,0.34794036432398345,0.18366900822434715,0.2755052773339635,0.10093870566937564,0.17714508670643328,0.5969136955768747,0,0.6288969428311932,0.5794055391253087,0.6825028248991881,0.5949950650220511,0.12811961267003255,0.1463839072288262,0.21200652793410427,0.5935291369692087,0.24320113354287107,0.2483036317905856,0.3653513311787323,0.6502755240080798,0.678153820747007,0.6368385141135945,0.6511845221588128,0.5528656154988092,0.16425088610744037,0.319119145416678,0.5241011645710079,0.26875828143440755,0.6516174979072265,0.32668489513587895,0.21099862077606715,0.28997730327409293,0.35421792900617477,0.618405043770317,0.41240845910518065,0.45501477566984394,0.5819239530309277,0.6060141345263484,0.45959964456632074,0.2071351135920613,0.2614587145791392,0.3534862826883174,0.21639128234149188,0.42169610156129705,0.6579549287837875,0.47814980883193997,0.22898369304666988,0.3270907466266025,0.2289892590176728,0.2135160679324261,0.29112642495804925,0.3461085857017179,0.5545071997544871,0.2670850303654237,0.344034640155778,0.6276680594346532,0.3822012783685628,0.35804278999477435,0.23561142579023436,0.6189225325980547,0.6285456197315614,0.22072779233192436,0.6856421802573038,0.6701922979495629,0.4037965671799283,0.22199059518229178],[0.7647325772803427,0.6158930901397139,0.3136767335554373,0.913720773578383,0.033248184437300224,0.8923473271053598,0.3698704411366275,0.7697274294618279,0.8474480219736207,0.4886193363229277,0.7945016605426322,0.3711399451136216,0.7689300928023698,0.6798294297006784,0.9204233166484699,0.5778442350084753,0.8337831889648804,0.8220460256326381,0.5833517150065982,0.8263771738243508,0.69040500327736,0.6400393696635075,0.47951777177931887,0.6426309133519577,0.927531029921366,0.5781286809758494,0.8490277045109403,0.6784424736422945,0.5924826295581801,0.034860071616313236,0.6288969428311932,0,0.7184870473940453,0.4047921601477561,0.03508036040238945,0.5984421011044092,0.597515869263969,0.5839230543407302,0.6147314292833601,0.6798022652885725,0.6026132438896188,0.8789727760429136,0.020128807506023683,0.4359812762902421,0.693611577210662,0.08588535711044766,0.610014282720132,0.6319844676172969,0.817970520873428,0.6571868744811289,0.7194475237158374,0.3744830616795604,0.8744793400677856,0.8397759336000394,0.8823602487010148,0.9470454008570799,0.8123002172846567,0.8651528413457459,0.4351214064515541,0.05250934461072631,0.41058001472751376,0.9132933276368687,0.834571688713301,0.6187094389767746,0.8729199907569271,0.6188993381899558,0.9513973344466418,0.6593209923961931,0.414636523525224,0.7881354905183066,0.5743897336247493,0.8047372856459585,0.6261381501216975,0.8842757600462398,0.9364321793948195,0.07216765356524574,0.8171729945010742,0.9092994557090632,0.40240549511675816,0.9116689007456825,0.9040402793041907,0.6559486121802728,0.07803121939656732,0.04010579838825872,0.6600403243364136,0.6356402070018441,0.3438582379427934,0.9028147580518996,0.6542002166586031],[0.14893787237546718,0.7703609567417156,0.44429150683220886,0.5647960818599135,0.703593093184714,0.4780296248422652,0.4166703352875101,0.46789344769491376,0.280204326694522,0.22963605921994076,0.4307883094528658,0.42103963492367097,0.5551824316190899,0.7858625918053725,0.4403357167312498,0.7050971627020537,0.3154442190994751,0.42452959834398796,0.7677059511276288,0.2528559263175718,0.48551830409104096,0.23369671259543714,0.23668886724637306,0.16635369272102213,0.5540050929368666,0.729438827028426,0.5135508627493814,0.5070890203592081,0.7307342648121018,0.6837205860873755,0.5794055391253087,0.7184870473940453,0,0.4116743864483541,0.7096452197592935,0.6886345793029958,0.7050778675554573,0.7579827688852027,0.12650880609855072,0.818275338912164,0.7982540250815213,0.4354827509825,0.7377089367778865,0.37831472744361605,0.08635388796499278,0.7969829620022374,0.11010433990545877,0.735015988144207,0.4031428812863131,0.06516415912421147,0.8482795525000728,0.4131744882913324,0.4817982975185119,0.6414170435835723,0.5585150366719012,0.5889917122703983,0.09379974978482435,0.3552377890335354,0.8844654122441018,0.7112801665538967,0.345808430349151,0.372440916889368,0.7074584835579437,0.8160178687729224,0.44147159168824895,0.7768208031411846,0.4858892470863604,0.1418744798690144,0.8909028206854543,0.47912959129517096,0.25647704639084584,0.5059867516383194,0.7769222736299154,0.5607875987887296,0.5786116690493202,0.6697245560666318,0.47072464346749604,0.5215216291900949,0.36843545237386227,0.46852392443037283,0.4894971655503239,0.8057147706101699,0.7723037138423438,0.7506179422104573,0.7935534435995794,0.19528107433345152,0.45705145081682197,0.4242211654046487,0.7931540266399414],[0.5227316521755647,0.7887490844988908,0.09633694056505304,0.843312231102753,0.4081322650040247,0.782509856994004,0.037864236079482555,0.7048885833894465,0.6451711199371216,0.2574354239947026,0.6989150666120811,0.033665327784455974,0.7545508348653116,0.8346769279480232,0.7762772483325954,0.7277412557439392,0.6574062982663701,0.7119710284899,0.7682345957745224,0.6178106312339713,0.6650384278317714,0.4735698165951925,0.2259862234893615,0.2758459625189525,0.8447478918255247,0.7425243817082561,0.7780745901235554,0.6702328700430381,0.7517789619866342,0.3815820671664752,0.6825028248991881,0.4047921601477561,0.4116743864483541,0,0.41530733942812237,0.7301544044554501,0.7394695785393403,0.762857455349031,0.28345512520772864,0.8529748445225652,0.7971575630711224,0.750981501174766,0.4162619947532244,0.03440888900259816,0.3506845841743654,0.4930632168056907,0.3038905999697525,0.7775651473681714,0.6974570017701766,0.37392223440624117,0.8923168272959988,0.03436581389785588,0.7746560861920212,0.8449485494780268,0.8223796140224964,0.8750228526295458,0.5052663806406769,0.6977447963021775,0.7495397238109995,0.4259714872773734,0.08175922069527702,0.7333214131280945,0.8791028540799162,0.8166036390485603,0.7509797404833484,0.7942376024035473,0.818635242857081,0.2993238481612366,0.7411840881655726,0.7225758091905724,0.42736898538650875,0.7478519139603018,0.7984997467102761,0.8247336822201413,0.86345712317582,0.3931070322422931,0.7352230667290873,0.8164536774760413,0.05576736731263356,0.7876909562939004,0.795444230955354,0.8321907768781174,0.48054016771506625,0.4462845812125053,0.827640817626372,0.25843970799107685,0.059924051382592464,0.7576602431481998,0.8240449596199301],[0.7489311318641743,0.5785721909066215,0.3208440842967605,0.883942496069201,0.004791400230636371,0.8651020570726348,0.3786967855065686,0.7407221600259912,0.8273080407588836,0.47827513375342684,0.7671669528748563,0.38061477521407683,0.737129965370457,0.6426261016360911,0.8952626937030291,0.5409945552129409,0.8117350469129152,0.7953951595108648,0.5459611811200313,0.80696925678369,0.6598991688628846,0.6199013598278491,0.47158401817600804,0.6421427705615077,0.8983819419493849,0.5410011674726808,0.8197218417411678,0.6471159548962082,0.5554022710525394,0.03177238697562125,0.5949950650220511,0.03508036040238945,0.7096452197592935,0.41530733942812237,0,0.5619425725183035,0.5607688474954017,0.5465869197277321,0.6102964468968975,0.6424044642473015,0.5651556447685386,0.8530268907416259,0.05367946565855424,0.44473185494916606,0.6892578712869322,0.08497024351007872,0.6029902960970217,0.5950450766253337,0.7920531194215686,0.6469299446008175,0.6820231747215124,0.3832285493538774,0.8467327852640836,0.8065793133235121,0.8521945394118082,0.9171595314167432,0.8023413502852726,0.8421269828027983,0.40061992955454523,0.015557227327001863,0.41359886232661675,0.8908030383678005,0.7997828712490149,0.5812434061461459,0.8466171938813184,0.5815487138567779,0.9252373397507138,0.6576548968773787,0.38103824051915186,0.7590060885226684,0.5541379108514368,0.7749612559318895,0.5888074546329733,0.8540731655370933,0.906662061297841,0.04267688177034013,0.7887796865965623,0.8808711245212113,0.40774559962715246,0.8852027809848684,0.8766300283062012,0.6185493478158083,0.06390949700990099,0.03969159863805824,0.6227128141439617,0.636807810153625,0.3558609076623869,0.8778598189342413,0.6168575733133838],[0.6068517784476811,0.08173488276098873,0.6520655163273348,0.43882927721488374,0.5628254819173459,0.47651055493253225,0.6944345344760825,0.34611967159850093,0.5857196741259708,0.5455162587659238,0.4017037972383811,0.7009262747254965,0.2754476215214238,0.10326578190650906,0.5422534392389565,0.03112495072351746,0.5394033775014195,0.4362414540594614,0.09304689551068329,0.5843775480494889,0.25987742981836986,0.4592494781459723,0.5719980249439255,0.7564600599002212,0.46412076843610606,0.054690216299389645,0.3969829986975607,0.2311994979459013,0.046657221858529656,0.5712036915650209,0.12811961267003255,0.5984421011044092,0.6886345793029958,0.7301544044554501,0.5619425725183035,0,0.01591256964783724,0.08182057003029139,0.6861727832101866,0.12922369696831912,0.11793313087153975,0.49366588355552826,0.6179613637209782,0.7320526328125881,0.7377833903274597,0.6032932317064581,0.6480697591820055,0.04650468358633549,0.44918216225626256,0.6289757427855073,0.16438692520496798,0.6962491931812415,0.45164626761436444,0.29759446631863123,0.4041141296640326,0.4648462271619548,0.7360397086277539,0.5428985716475501,0.34355985269221767,0.546503424331466,0.6611339986178566,0.5899134452053866,0.256974057186019,0.1319398017945318,0.48149978090180584,0.08807275906576652,0.5467975607234707,0.7519155746575571,0.3698966976311386,0.35584652832845265,0.4304183146033833,0.35238226334186873,0.08676551612103436,0.4048599327310388,0.4582351545896429,0.5269334061651942,0.39382795339153415,0.4646299763382614,0.6795935030578323,0.5083301374657141,0.4822784113657053,0.11475904596908086,0.5723669519575628,0.5894322821280266,0.1036452823572199,0.7733406638196342,0.7073009920659314,0.5326150365858673,0.10253421132471154],[0.6245370932027832,0.06393280336548274,0.6600029968888944,0.4549843672565153,0.561881867389036,0.493978384351964,0.7033490526920562,0.36403910592684796,0.6040007884068156,0.5589475225044155,0.4197665322386891,0.7097844899015215,0.2922300229723036,0.09283087484771699,0.560064970861723,0.019025881920526646,0.5577016965910859,0.4542680303900251,0.07508160428697637,0.6026008764966095,0.2781001946949496,0.4764116656522953,0.5849861498118311,0.7708445012975227,0.48050773973679506,0.03792849528407316,0.414069129383077,0.24940281721531243,0.028494574709740598,0.5710824390494363,0.1463839072288262,0.597515869263969,0.7050778675554573,0.7394695785393403,0.5607688474954017,0.01591256964783724,0,0.06388618245800445,0.7008588699236592,0.11516509524137701,0.09963474575285745,0.5115275538959881,0.616690409025545,0.7421394308685586,0.7533176471767129,0.5997071513058126,0.663082439017273,0.03594482734280123,0.4673213223214109,0.6450251908761938,0.15200621920024496,0.705260604251016,0.46908967390614875,0.3114343384934146,0.4203712436066006,0.4805850726026124,0.753298901593798,0.5611423608023739,0.3298194172567198,0.5450378997416533,0.6715225493080131,0.6080985163410665,0.26735252373966994,0.11376365891742918,0.4993227991498389,0.07033112607148317,0.564207728503002,0.7666727904714694,0.35671902788049,0.37358328130593244,0.44661789829703064,0.36973753895111916,0.06956986500834145,0.42107077784272245,0.47415995111065223,0.5267289982189186,0.41152516309921133,0.4815364801689827,0.6895487038336201,0.525891585762157,0.49961225649039004,0.09903921896992852,0.5690961762889446,0.5872391364783439,0.089317011756779,0.7873717411936751,0.7153345710887914,0.5505418866497266,0.08748716805992708],[0.6839641755088656,0.029711677128369272,0.6785294598432796,0.5193984290555224,0.5485165146194596,0.5601016039558159,0.7253632308102137,0.4302909441862323,0.668131159222108,0.5993587748309386,0.48590457055426506,0.7315527254006439,0.35770462554050547,0.09598397148084324,0.6263368664407222,0.05338929457145355,0.6225063300796937,0.5204478184106778,0.008849451683709542,0.6659315281832628,0.34386496994606497,0.5333011074286474,0.6234865483941252,0.8144487790471262,0.5452815639797272,0.0270757662469838,0.4798394144861632,0.3152497095105077,0.03315445867606817,0.5605973127840399,0.21200652793410427,0.5839230543407302,0.7579827688852027,0.762857455349031,0.5465869197277321,0.08182057003029139,0.06388618245800445,0,0.7459296238241048,0.0944881495810985,0.037890143912847396,0.5777962921674276,0.6017206948501787,0.7684995422568993,0.8019603867604381,0.5766208973441658,0.7096596887734351,0.06707040978386625,0.5333251232253465,0.6962274416059945,0.13499746000442112,0.7276364068570818,0.535196463225241,0.3717703455346527,0.4849811124410692,0.5442483035164163,0.8102061995062714,0.6267521241606863,0.274030272548148,0.5299489830486481,0.6993655727273257,0.6739694094012504,0.32037045457660474,0.05610322530979042,0.5655947510425163,0.03269492339466373,0.6302789319714039,0.8118821450328157,0.30255563023413823,0.43984734197608305,0.49913946679327653,0.4357867543007389,0.039844350194893595,0.4856053990429322,0.5381626095731807,0.5163513354508994,0.47777814362571497,0.5470662270931989,0.7156284185957895,0.5920767732551241,0.5656219586064077,0.07099417337865742,0.5473577198001791,0.5691929992378045,0.07375377704341518,0.8294410608948007,0.733935193999174,0.6167922479618013,0.06789981788180136],[0.2569988827271266,0.7631111913657798,0.3234994415297432,0.6442429142127031,0.6038117454942217,0.565594773716029,0.29079910371064277,0.5277599665503699,0.38863100499467684,0.15385382874494108,0.5018316045126294,0.2947484529144384,0.603893720889671,0.7891097233641569,0.5398861370104783,0.696980591978482,0.4142812393623473,0.5034044056904294,0.7545657385133941,0.36047916644031447,0.5234060285483096,0.2756729858833014,0.14395412088409043,0.07049811600376842,0.6379492314187869,0.7190756426092983,0.5861198047337077,0.5397926550799116,0.7230290011742443,0.5818084306219767,0.5935291369692087,0.6147314292833601,0.12650880609855072,0.28345512520772864,0.6102964468968975,0.6861727832101866,0.7008588699236592,0.7459296238241048,0,0.8177821208850198,0.7855459702002403,0.5264392850448445,0.632526729519084,0.24962551301444952,0.07657989104754856,0.6972494579709393,0.04082109452454414,0.7345796563328226,0.4841200173284839,0.10565503678365663,0.8516419272484036,0.2870741984874371,0.5647597519918457,0.6945424012140974,0.6321285857011073,0.6718736921497505,0.21945873013632924,0.45553250654879124,0.8329397101373093,0.6141664776913035,0.2219263034188163,0.4811105281579663,0.750835777215952,0.8043731451041265,0.5301062304439145,0.7694571648862102,0.5850413323778072,0.06356672424139681,0.8352004503643885,0.5420666099605431,0.2667484236317922,0.5693303979316158,0.7709214433532036,0.6344935960288638,0.6608167832111993,0.5734489670614688,0.5418372189160562,0.6063527152860976,0.24286424983722518,0.5618225252362518,0.5779441032063084,0.8021752051406958,0.6751056274723874,0.6498353587738082,0.792158479559146,0.09436310829412234,0.3311340689831117,0.5223753655505834,0.7906967782653174],[0.7304780876734648,0.06382397018288395,0.7708924161133366,0.5072335856281728,0.6444926098687219,0.5626573065311876,0.8161585806031609,0.44344884935496165,0.6979977951245753,0.6764956257685816,0.5013092800828355,0.8224767290993443,0.35749638566780667,0.03614488198736043,0.633906036483379,0.12333847611005479,0.648954946576017,0.5343266257927488,0.09408037180788889,0.6995593183289291,0.3676761670124779,0.5866321629741186,0.7025000188809846,0.8880348505353186,0.5348270125391795,0.10877316439702701,0.4788251105332669,0.3391858245191479,0.09881092076151408,0.6570224344942609,0.24320113354287107,0.6798022652885725,0.818275338912164,0.8529748445225652,0.6424044642473015,0.12922369696831912,0.11516509524137701,0.0944881495810985,0.8177821208850198,0,0.07857434722371513,0.5870294236926791,0.6972748590283352,0.8569283268797918,0.8689843221642404,0.6696307194987048,0.7796224181055516,0.08113307294744065,0.5502814344426669,0.7595049362157331,0.03825302068710652,0.818250858456928,0.5378303747925527,0.34711968389978887,0.4747313527311358,0.5275890229549361,0.8624406665065552,0.6471206936949843,0.34008260841799265,0.6256023273198652,0.7868129346263308,0.6911128729814927,0.279579303128735,0.06876716881744693,0.5742151263219472,0.059563178978746835,0.6308779303792782,0.8835204666430788,0.3705844494655686,0.44928878094831515,0.5608095507290827,0.4394796574661149,0.053486877187356494,0.4748858001676521,0.5233497900707942,0.612836171399149,0.4856455894408449,0.5423290986862003,0.8041818883449309,0.595600958255077,0.566101527381991,0.021472360502465357,0.6409925158102705,0.6640006172773903,0.023492009912209625,0.9047759472449594,0.8263227856805296,0.6269408242954688,0.0265464731412311],[0.7237089682331632,0.03932271248628013,0.711320604291242,0.5475005978655738,0.5675214751870608,0.5922708678070342,0.759267177626391,0.4644772943514068,0.7059434470900289,0.6382989959950651,0.5207664267786456,0.7653635334224302,0.3882851339825221,0.09582687854783786,0.6598471126198784,0.09264445227571469,0.6597218069449374,0.5550901055461837,0.028594500736870032,0.7042783491755923,0.37982796613085096,0.5733975269820842,0.662034266131007,0.8538174924481504,0.5739631153442795,0.06690333678842957,0.5108491118966405,0.3510694007350557,0.06927862367281933,0.5810779570745839,0.2483036317905856,0.6026132438896188,0.7982540250815213,0.7971575630711224,0.5651556447685386,0.11793313087153975,0.09963474575285745,0.037890143912847396,0.7855459702002403,0.07857434722371513,0,0.6115748275177563,0.6195606092699618,0.8037382151741121,0.8419861145197838,0.589821662659097,0.7494852584603942,0.0903781638598383,0.568634413643342,0.7364494341168215,0.11563752660611853,0.7616572949761733,0.567313613967744,0.3952295042519744,0.513502436816201,0.5711026495823385,0.8503366181211847,0.6629098552148999,0.26352507475466497,0.5481152527911674,0.7351462419276691,0.7095884441246464,0.3376508990285435,0.0171383261335074,0.5992059501634992,0.03529423522983319,0.6621370047605458,0.8514962490773975,0.2934594241899864,0.47324241786275284,0.5394133606432484,0.4677987717696876,0.04237839399473104,0.5139949462360126,0.5655516697340479,0.5371425207544592,0.5109558925389923,0.5773304854885826,0.7508545840976288,0.6245634066753813,0.5972917114650973,0.05591864343377283,0.561553558561641,0.5854512136361424,0.06748136797766106,0.8685414408959352,0.7666419785078066,0.6508593408060249,0.06089266566594454],[0.2855092094923335,0.5712117966061969,0.7303948077448412,0.13736007348861215,0.8498038974630026,0.04253376342902449,0.735319505447967,0.1452713808792454,0.16834608021343742,0.4913901978229934,0.09324963660421146,0.741833226835264,0.2280744195134359,0.5485048496710017,0.0466088818389438,0.52474896827441,0.12033212374914246,0.05904127417089778,0.5889947391919211,0.1895829641856995,0.23596915104136085,0.2752410005123119,0.522615394337058,0.590860729458927,0.11972015744562936,0.550374167632326,0.11539493291481213,0.26308122909107484,0.5423533074899384,0.842219067487999,0.3653513311787323,0.8789727760429136,0.4354827509825,0.750981501174766,0.8530268907416259,0.49366588355552826,0.5115275538959881,0.5777962921674276,0.5264392850448445,0.5870294236926791,0.6115748275177563,0,0.9014708066024164,0.7291906634658479,0.5221038483481898,0.9282725108042714,0.48566556465810057,0.5210874243682849,0.05861652478228229,0.41982997963146873,0.5992534712354591,0.7339285653312494,0.057534282317985214,0.2738513571747761,0.14597970982245975,0.15477592069958246,0.41335419005373153,0.08732940796943847,0.8161758394629278,0.8452488163831213,0.6673571616874466,0.11077105436195718,0.3571347830759477,0.6222483403377099,0.010692680573321312,0.5766560159810551,0.0702958747802241,0.5705841588988778,0.8366322017999691,0.13608055820239218,0.32855324776217526,0.1459327436361742,0.5721666042222556,0.14760979770114632,0.1456480237986062,0.8080775189396423,0.099011789362082,0.08755878571882855,0.6938846850067494,0.03432374069515452,0.05234982302233929,0.586900500681444,0.8965160328273597,0.8933082799406873,0.5700125094917823,0.6189963385320343,0.7696326866500219,0.03760777681077952,0.5732185691637285],[0.7858309615094435,0.6337469557773359,0.32721345566279353,0.9360979647474494,0.05360591387379543,0.9148609800221797,0.38234587532505854,0.7921692417159364,0.8693693966496296,0.5084637385504561,0.8170139430132867,0.38327533481082626,0.7909760884919655,0.6980661922815476,0.9428873706108972,0.5968543840724604,0.8559746710404113,0.8445591229355616,0.600886237075985,0.8481809018851068,0.7126813219924023,0.6619955000226396,0.4986462086001492,0.6588693206556548,0.9499663842755154,0.5965787449317017,0.8714481302762982,0.7005804659733319,0.6110417351702049,0.057099422716986745,0.6502755240080798,0.020128807506023683,0.7377089367778865,0.4162619947532244,0.05367946565855424,0.6179613637209782,0.616690409025545,0.6017206948501787,0.632526729519084,0.6972748590283352,0.6195606092699618,0.9014708066024164,0,0.4482910158553809,0.7113130799058542,0.07729423355452378,0.6287173980450225,0.6508297493305046,0.8404686854219475,0.6768763528576924,0.736732116818585,0.3869834217764945,0.8969846736510031,0.8614370425657354,0.9046916187818174,0.9694118934004093,0.8318256062364375,0.8874518025257815,0.44509231717290915,0.06944752253459646,0.4256947794534694,0.9355307897396783,0.8555245033781188,0.6353858339938593,0.8954273764219752,0.6366269411492258,0.9739005424394466,0.6760204035487214,0.4235258077037133,0.8105684559857582,0.5963787556956128,0.8271109560573252,0.6439504645314549,0.9066025454763731,0.958810902569195,0.09408891534892934,0.8396535908292062,0.9317801078588595,0.41648649142018684,0.9341790036798853,0.926552244515902,0.6734167055788819,0.0781142899925724,0.03979033940103619,0.6778600663851019,0.6511892708663327,0.354740501863761,0.9252678955465481,0.6719569614440583],[0.49364251789374036,0.7934780422963816,0.12192527730335068,0.8255762195777456,0.4375753370994838,0.7619636614529669,0.06375838962119054,0.6893003040074063,0.6181107520577493,0.23794298342201453,0.6806226293208503,0.06267023030422611,0.7428309929925148,0.8371818394575166,0.7528539835435957,0.7313158082689987,0.6324435017287096,0.692206123850388,0.7743354269556386,0.5905062644064902,0.6537273353658382,0.4526968984209653,0.20548009718948987,0.2393577605133684,0.8259274008987496,0.7471649327868871,0.760984795984179,0.6604174274455782,0.7558179579095996,0.4113389395341579,0.678153820747007,0.4359812762902421,0.37831472744361605,0.03440888900259816,0.44473185494916606,0.7320526328125881,0.7421394308685586,0.7684995422568993,0.24962551301444952,0.8569283268797918,0.8037382151741121,0.7291906634658479,0.4482910158553809,0,0.315140182133487,0.5241800191950153,0.2723029706766367,0.7799866549333424,0.6769446206975549,0.34326724559824545,0.8958108495829094,0.05917551236063759,0.755064059176465,0.8338537394811814,0.8057664024980508,0.8568507532341413,0.47112023113965906,0.6731139517445804,0.7677387271796035,0.4546367793500206,0.06975575667100684,0.7072857490989736,0.8711438366521944,0.8232426787365766,0.7297143659792027,0.7991169748691352,0.795794100360087,0.2630616783730707,0.7606388811993541,0.7066710213711536,0.40993024317206667,0.7323892207974996,0.8030529007965767,0.8081341482719911,0.8453081125963223,0.4203821793988886,0.7176759664241871,0.7970367526676166,0.05049815357287347,0.765875636103241,0.7748747726850558,0.8366690386691238,0.5104474820037559,0.47702065201175314,0.8313894762960359,0.22166992899781698,0.0949761279536777,0.7343272286707008,0.8280418844047016],[0.2371924733336965,0.8171399955446749,0.39914156043907156,0.6489636460663217,0.6827761880296488,0.5640213198931472,0.3625474553728139,0.5451611330762123,0.3688956684303736,0.22623218111631566,0.511823765216852,0.3658957326507435,0.6285320664996991,0.8385036329311745,0.5284591050127386,0.751136630995523,0.40316387169609913,0.5080047246724279,0.8110846495960736,0.34146585345068303,0.5537652275609094,0.30012196130764934,0.22069546679721322,0.0824062628539553,0.6393294058229487,0.7742883546294688,0.595491955711354,0.5731215507718342,0.7771100252965096,0.660759613947944,0.6368385141135945,0.693611577210662,0.08635388796499278,0.3506845841743654,0.6892578712869322,0.7377833903274597,0.7533176471767129,0.8019603867604381,0.07657989104754856,0.8689843221642404,0.8419861145197838,0.5221038483481898,0.7113130799058542,0.315140182133487,0,0.776215060144427,0.09465019693792959,0.7854714371227541,0.48712047523009777,0.11281959923858907,0.9011749277404263,0.35855693531005345,0.5666571452084798,0.7169172001956692,0.6409508203086463,0.6741332136851991,0.16037253713971528,0.44329573041627984,0.9035451664529675,0.6930773725100613,0.29639014124068414,0.4611786069605366,0.7792145474914554,0.8604236241523663,0.5275972118175385,0.823557323088674,0.5740270388482075,0.05644570336005866,0.9070161430925971,0.557605094498016,0.30751549602427636,0.5847527340160577,0.8244307000025041,0.6432595817546513,0.6635549042062439,0.6523106352263283,0.5520003645771652,0.6069807071109324,0.3154670709221228,0.5557018705838039,0.5757229694374967,0.8546984391623381,0.7540334487243578,0.7287962446160299,0.8436876499218554,0.11026690157600195,0.4024907482150226,0.5121226343936757,0.8426992273190126],[0.834367372961149,0.6086644415349463,0.4015736533063699,0.9516298264841828,0.09118828948853969,0.9381064005947909,0.4580538381948492,0.8105785942460958,0.9096519628995499,0.5655335292580408,0.8402483157448555,0.45937602825993584,0.7998988217991871,0.6746419838977392,0.9716399431942813,0.5789955156551222,0.892219808246738,0.869605770956409,0.5743661550123159,0.8899629889998478,0.7265719662143709,0.7025653486153716,0.5589304533898821,0.727853355428184,0.9674805051893941,0.5752630039791998,0.8886741729246964,0.7116698325400282,0.5902390378375644,0.11367270551255398,0.6511845221588128,0.08588535711044766,0.7969829620022374,0.4930632168056907,0.08497024351007872,0.6032932317064581,0.5997071513058126,0.5766208973441658,0.6972494579709393,0.6696307194987048,0.589821662659097,0.9282725108042714,0.07729423355452378,0.5241800191950153,0.776215060144427,0,0.6903053604162016,0.6314320297081804,0.8674749646889112,0.7341537841811698,0.7078408175000817,0.4626602806538443,0.9188444963449699,0.8644111936205979,0.9190261668275933,0.984506459714482,0.88957555793073,0.9214490640987053,0.3902788903913722,0.08501445860962306,0.49735166641677653,0.9706819288992435,0.8507886627353003,0.6041655475205711,0.921295950095972,0.6108255459265429,1,0.7438329820728187,0.3658328895708625,0.8285330885721386,0.6368489297545026,0.8429686679913254,0.6185514010595708,0.9208078317406864,0.9743119992324433,0.12649911427385077,0.8597680731145624,0.9515515704368526,0.4899525086627255,0.9595303873120793,0.9493065451387235,0.6459232756169269,0.030070765311386242,0.04550403188329012,0.6522320277495202,0.721741440300487,0.4320825885663136,0.9545696661869832,0.6460281498928656],[0.2226117265479719,0.7259957407023092,0.33187534335380814,0.6019107968172673,0.5967378069645077,0.5242479068925467,0.30596074343027047,0.48459784221343527,0.35240404272989817,0.1303346069688163,0.4591149126088633,0.31063059213635097,0.5607770798474043,0.750315837452236,0.5005815441565831,0.6598711675074235,0.3754284221106054,0.46126638546124316,0.7185227935984498,0.3242785821888727,0.4806116562484391,0.23246943840352863,0.12932160933813164,0.11319202027066187,0.5960457221773384,0.6824276078715895,0.5433763989371968,0.49731819037794395,0.6859079164229911,0.5759274295570495,0.5528656154988092,0.610014282720132,0.11010433990545877,0.3038905999697525,0.6029902960970217,0.6480697591820055,0.663082439017273,0.7096596887734351,0.04082109452454414,0.7796224181055516,0.7494852584603942,0.48566556465810057,0.6287173980450225,0.2723029706766367,0.09465019693792959,0.6903053604162016,0,0.6962565664428881,0.4422340072137766,0.0698016195984314,0.8129300432724931,0.3026459498967483,0.52288360699853,0.651371685755247,0.5893974646903967,0.6298150873321817,0.20628746200330927,0.41674838536601155,0.8065124497278073,0.605633005805366,0.23432863765401726,0.44433763391022535,0.7079887624905418,0.7681466388697645,0.48899160748420206,0.7323748663645374,0.5455138143018808,0.10271816336091624,0.8100749658745338,0.49896279742014904,0.22486127299388775,0.5262205803958205,0.7336017802188735,0.5917656262473783,0.618707780212604,0.5643736260455069,0.4990655346774238,0.5645971700285859,0.2577326952308414,0.5213077071343813,0.5366825082004367,0.7644918046004785,0.6667311178650901,0.6434142852031319,0.7541008140512538,0.1375699344191441,0.3462415931969901,0.48285198352554565,0.7528113701686915],[0.6495194410552485,0.048734166599961264,0.6983172923138351,0.45474159056636193,0.5963645603726299,0.5005441605254062,0.7415355177543695,0.3747154918054745,0.6224255599917414,0.5943794715836176,0.4317083272389484,0.7479823080108473,0.29599333091628577,0.05481192719466533,0.5690529082302748,0.05231287183871069,0.574680390348204,0.4656635692660854,0.07623732202943141,0.6225439189260032,0.293210328276002,0.5040685116022209,0.6208885263562879,0.8050256949929671,0.48120371641467635,0.05501420518845306,0.4186051022861489,0.26440017279576317,0.039740233695485204,0.6062559004195978,0.16425088610744037,0.6319844676172969,0.735015988144207,0.7775651473681714,0.5950450766253337,0.04650468358633549,0.03594482734280123,0.06707040978386625,0.7345796563328226,0.08113307294744065,0.0903781638598383,0.5210874243682849,0.6508297493305046,0.7799866549333424,0.7854714371227541,0.6314320297081804,0.6962565664428881,0,0.48010105839791367,0.6760359503624521,0.11549777669458593,0.7434269675316478,0.4755776767978638,0.30372741273920423,0.4207408932406877,0.4784877924707181,0.7803519891234505,0.575588471873251,0.3433826123372303,0.5790587973078671,0.7092417775954857,0.6212702644778241,0.2509173143184694,0.09892487994300872,0.5085741681726791,0.05359280232184336,0.5701861942080402,0.80026980555024,0.3717092122359436,0.3826217276474078,0.47735151220662736,0.37611442442932497,0.048693591477066867,0.421231200579254,0.47285225498978695,0.5618709808538475,0.4200652618151951,0.48480097413083667,0.7274423331835096,0.5330101398641711,0.5052850765034305,0.06944447474933782,0.6012199281963754,0.6205041766921071,0.05615670458912356,0.8220522738464049,0.7536430815939458,0.5606146973477916,0.05618749352707867],[0.2581561445524665,0.5291936643397925,0.6734265384200696,0.15946005166437302,0.7888174329791149,0.08267254381563059,0.6803668512513799,0.10482425988541277,0.1622605657383453,0.43764382597150636,0.04674563432903386,0.6869634663338846,0.19894001038346262,0.511968401827249,0.10314625986159547,0.4791017757237979,0.10891892790340153,0.020151675446852844,0.5445601348012307,0.17603129179279015,0.18743368999443008,0.22186296949766313,0.4694484771514387,0.551167588655842,0.1514446708113498,0.505163274667599,0.11171851952609012,0.2157969484387601,0.4981931394783314,0.781219172399879,0.319119145416678,0.817970520873428,0.4031428812863131,0.6974570017701766,0.7920531194215686,0.44918216225626256,0.4673213223214109,0.5333251232253465,0.4841200173284839,0.5502814344426669,0.568634413643342,0.05861652478228229,0.8404686854219475,0.6769446206975549,0.48712047523009777,0.8674749646889112,0.4422340072137766,0.48010105839791367,0,0.3797854088887632,0.5658033090712438,0.6791438534462605,0.07826468726123216,0.26222391382485466,0.1544409133610692,0.1855189735521602,0.39365425207580435,0.09537740339698444,0.7636372237245127,0.7843237182060696,0.6135115217306146,0.13878843775828834,0.3421162008414225,0.5804789953224676,0.05367004722656314,0.5348983727141634,0.1311663778721,0.5323289701291314,0.783198666486868,0.1026668118467037,0.27137119336849924,0.12210126569083012,0.5309805120604572,0.15661677830364842,0.17461527900373852,0.7470968924984229,0.07507512069062851,0.12008000693125163,0.6399519627536583,0.09266830008589766,0.09560358151149488,0.5481498739964392,0.8357587094933258,0.8323675478755774,0.5316600016326435,0.5786586359001308,0.7139062982358183,0.08797304877039747,0.5343616805255162],[0.15049431817723266,0.7097479614774256,0.39459548211239137,0.5410229944685957,0.6410260824288632,0.45984042686953314,0.37343253735635057,0.4316354598549952,0.2