"trial_id","rt","stimulus","response","trial_type","trial_index","plugin_version","time_elapsed","language","participant_number","success","raw_payload","placements","dissimilarity_vector","n_words","trial_category","distance_matrix","value"
"consent_form","102002","
    <div style=""max-width:800px; margin:0 auto; text-align:left; font-size: 16px; padding: 10px 0;"">
      <h1>Informed Consent Form</h1>
      <p>You are being invited to participate in a research study titled <strong>""Reproducibility of Psychological Science and Instruction.""</strong> This study is being done by Dr. Bria Long from UC San Diego and associated graduate students in the Experimental Methods course. You were selected to participate in this study because you are an adult in the U.S. and have been a represented population in previous psychology studies.</p>
      
      <p>The purpose of this study is to better understand how well previously published studies in the psychological field replicate online and with different populations. Your participation in this research should last approximately <strong>5-30 minutes</strong>. If you agree to take part in this study, you may be asked to view a set of stimuli, including pictures, sounds, written text, or videos and then giving some responses via key-presses, verbally, or with paper-and-pencil. We may also observe your choices or preferences among an array of stimuli. These stimuli will be taken directly from or closely adapted from studies that already exist in the published psychological literature. Stimuli will include, e.g., pictures of objects and human faces, audio and video clips, short text passages, etc. None of the stimuli will be disturbing, threatening, or offensive. The online and in-person experiments described in this protocol will take no more than 30 minutes. An example game you might play would be to click on an image on the screen that matches a word you hear being said out loud. Your total expected time commitment for this study is between 5-30 minutes, and is specified in the study description.</p>
      
      <p>Your participation in this study is completely voluntary and you can withdraw at any time. Choosing not to participate or withdrawing will result in no penalty or loss of benefits to which you are entitled. You are free to skip any question that you choose.</p>
      
      <p>We will not be asking for any personally identifying information, and we will handle responses as confidentially as possible. Your SONA or Prolific IDs will never be tied to your responses on this survey. However, we cannot guarantee the confidentiality of information transmitted over the Internet. To minimize this risk, data containing anything that might be personally identifying (e.g. Prolific IDs or IP addresses) will be encrypted on transfer and storage and will only be accessible to qualified lab personnel. We will be keeping data collected as part of this experiment indefinitely. This anonymized data (containing neither Prolific IDs nor IP addresses) may be shared with the scientific community or with other participants to be used as stimuli in future studies.</p>
      
      <p>If you have questions about this project or if you have a research-related problem, you may contact the researcher(s), <strong>Dr. Bria Long, <a href=""mailto:brlong@ucsd.edu"">brlong@ucsd.edu</a></strong>. If you have any questions concerning your rights as a research subject, you may contact the UC San Diego Office of IRB Administration at <a href=""mailto:irb@ucsd.edu"">irb@ucsd.edu</a> or 858-246-4777.</p>
      
      <h3 style=""margin-top: 25px;"">Consent Statement</h3>
      <p style=""font-weight: bold;"">By participating in this research you are indicating that you are at least 18 years old, have read this consent form, and agree to participate in this research study. Please keep this consent form for your records.</p>
    </div>
  ","0","html-button-response","0","2.1.0","102005","en","9vce2lwkv9_5dizy3","","","","","","","",""
"","14523","
    <div style=""display:flex; align-items:center; justify-content:center; height:100vh; font-family:sans-serif;"">
      <div style=""max-width:900px; margin:0 auto; text-align:center;"">
        <h1 style= ""font-size: 24px;"">Welcome! Thank you for participating in the study.</h1>
        <p style=""font-size:18px; line-height:1.6;"">
          In this task, you will be presented with <strong>90 words</strong> arranged <strong>outside a circle</strong>.<br>
          Your job is to <strong>drag these words into the circle</strong> and <strong>rearrange them</strong> based on their <strong>meaning similarity</strong>.<br><br>
          Words that are <strong>similar in meaning</strong> should be placed <strong>closer together</strong>.<br>
          Words that are <strong>different in meaning</strong> should be placed <strong>farther apart</strong>.<br><br>
          You can place the words <strong>anywhere inside the circle</strong>. There is no single correct answer — 
          we are interested in <strong>your personal judgment</strong> of how these words relate to each other.<br><br>
          <strong>You must move all words into the circle before you can finish.</strong><br>
          After the initial arrangement, you will arrange words from specific categories.
        </p>
        <p style=""font-size:16px; margin-top:30px;""><em>Press any key to continue.</em></p>
      </div>
    </div>
  ","d","html-keyboard-response","1","2.1.0","116529","en","9vce2lwkv9_5dizy3","","","","","","","",""
"","1828","<p style='font-size:20px;'>Which is your first language or primary language of use?</p>","1","html-button-response","2","2.1.0","118358","en","9vce2lwkv9_5dizy3","","","","","","","",""
"","5013","","","fullscreen","3","2.1.0","124377","en","9vce2lwkv9_5dizy3","true","{""placements"":[{""word"":""proud"",""x"":248.8,""y"":362.5,""cx"":271.8,""cy"":380,""angle_rad"":2.775,""angle_deg"":159},{""word"":""refrigerator"",""x"":467.5,""y"":103.5,""cx"":506.8,""cy"":121,""angle_rad"":-0.97,""angle_deg"":304.4},{""word"":""rabbit"",""x"":274.2,""y"":464.5,""cx"":296.8,""cy"":482,""angle_rad"":1.954,""angle_deg"":112},{""word"":""agreement"",""x"":290.3,""y"":212.5,""cx"":328.8,""cy"":230,""angle_rad"":-1.746,""angle_deg"":260},{""word"":""lips"",""x"":485.3,""y"":539.5,""cx"":500.8,""cy"":557,""angle_rad"":0.941,""angle_deg"":53.9},{""word"":""scissors"",""x"":261.5,""y"":596.5,""cx"":291.8,""cy"":614,""angle_rad"":1.788,""angle_deg"":102.4},{""word"":""giraffe"",""x"":282.4,""y"":428.5,""cx"":306.8,""cy"":446,""angle_rad"":1.994,""angle_deg"":114.2},{""word"":""system"",""x"":551.6,""y"":163.5,""cx"":578.8,""cy"":181,""angle_rad"":-0.636,""angle_deg"":323.6},{""word"":""fault"",""x"":65.5,""y"":403.5,""cx"":83.8,""cy"":421,""angle_rad"":2.881,""angle_deg"":165.1},{""word"":""friendship"",""x"":231.4,""y"":112.5,""cx"":266.8,""cy"":130,""angle_rad"":-1.932,""angle_deg"":249.3},{""word"":""method"",""x"":652.4,""y"":306.5,""cx"":680.8,""cy"":324,""angle_rad"":-0.078,""angle_deg"":355.5},{""word"":""ant"",""x"":344,""y"":482.5,""cx"":358.8,""cy"":500,""angle_rad"":1.512,""angle_deg"":86.6},{""word"":""depressed"",""x"":310.1,""y"":280.5,""cx"":347.8,""cy"":298,""angle_rad"":-1.613,""angle_deg"":267.6},{""word"":""sofa"",""x"":525.5,""y"":150.5,""cx"":543.8,""cy"":168,""angle_rad"":-0.754,""angle_deg"":316.8},{""word"":""violence"",""x"":106.1,""y"":428.5,""cx"":136.8,""cy"":446,""angle_rad"":2.719,""angle_deg"":155.8},{""word"":""chopsticks"",""x"":335.1,""y"":35.5,""cx"":372.8,""cy"":53,""angle_rad"":-1.494,""angle_deg"":274.4},{""word"":""concept"",""x"":627.2,""y"":347.5,""cx"":656.8,""cy"":365,""angle_rad"":0.049,""angle_deg"":2.8},{""word"":""sparrow"",""x"":294.8,""y"":460.5,""cx"":324.8,""cy"":478,""angle_rad"":1.765,""angle_deg"":101.1},{""word"":""chair"",""x"":370.5,""y"":128.3,""cx"":390.7,""cy"":145.8,""angle_rad"":-1.374,""angle_deg"":281.3},{""word"":""business"",""x"":604,""y"":291.3,""cx"":636.7,""cy"":308.8,""angle_rad"":-0.143,""angle_deg"":351.8},{""word"":""magic power"",""x"":449.9,""y"":340.3,""cx"":494.7,""cy"":357.8,""angle_rad"":0.054,""angle_deg"":3.1},{""word"":""result"",""x"":638.6,""y"":320.4,""cx"":660.8,""cy"":337.9,""angle_rad"":-0.039,""angle_deg"":357.8},{""word"":""hostility"",""x"":335.4,""y"":284.5,""cx"":363.8,""cy"":302,""angle_rad"":-1.291,""angle_deg"":286},{""word"":""dispute"",""x"":340.2,""y"":267.5,""cx"":367.8,""cy"":285,""angle_rad"":-1.304,""angle_deg"":285.3},{""word"":""relationship"",""x"":161.9,""y"":339.5,""cx"":202.8,""cy"":357,""angle_rad"":3.094,""angle_deg"":177.3},{""word"":""pencil"",""x"":548.5,""y"":411.5,""cx"":571.8,""cy"":429,""angle_rad"":0.342,""angle_deg"":19.6},{""word"":""anger"",""x"":333.8,""y"":283.5,""cx"":356.8,""cy"":301,""angle_rad"":-1.433,""angle_deg"":277.9},{""word"":""team"",""x"":179.2,""y"":338.5,""cx"":199.8,""cy"":356,""angle_rad"":3.102,""angle_deg"":177.7},{""word"":""washing machine"",""x"":456.7,""y"":75.5,""cx"":515.8,""cy"":93,""angle_rad"":-0.998,""angle_deg"":302.8},{""word"":""thigh"",""x"":472.4,""y"":531.3,""cx"":492.7,""cy"":548.8,""angle_rad"":0.948,""angle_deg"":54.3},{""word"":""charity"",""x"":524,""y"":580.3,""cx"":549.7,""cy"":597.8,""angle_rad"":0.893,""angle_deg"":51.1},{""word"":""finger"",""x"":458.2,""y"":560.5,""cx"":480.8,""cy"":578,""angle_rad"":1.05,""angle_deg"":60.2},{""word"":""characteristic"",""x"":220.5,""y"":326.5,""cx"":266.8,""cy"":344,""angle_rad"":-3.07,""angle_deg"":184.1},{""word"":""cat"",""x"":225.4,""y"":492.5,""cx"":239.8,""cy"":510,""angle_rad"":2.174,""angle_deg"":124.6},{""word"":""eye"",""x"":462.7,""y"":576,""cx"":479.1,""cy"":593.5,""angle_rad"":1.083,""angle_deg"":62.1},{""word"":""bed"",""x"":558.1,""y"":144.5,""cx"":574.8,""cy"":162,""angle_rad"":-0.696,""angle_deg"":320.1},{""word"":""computer mouse"",""x"":461.9,""y"":242,""cx"":519.1,""cy"":259.5,""angle_rad"":-0.492,""angle_deg"":331.8},{""word"":""microwave"",""x"":429.6,""y"":88,""cx"":468.1,""cy"":105.5,""angle_rad"":-1.121,""angle_deg"":295.8},{""word"":""reason"",""x"":609.4,""y"":332.5,""cx"":635.8,""cy"":350,""angle_rad"":0,""angle_deg"":0},{""word"":""hammer"",""x"":284.9,""y"":597.7,""cx"":315.6,""cy"":615.2,""angle_rad"":1.7,""angle_deg"":97.4},{""word"":""spoon"",""x"":350.9,""y"":48,""cx"":375.1,""cy"":65.5,""angle_rad"":-1.483,""angle_deg"":275},{""word"":""fate"",""x"":184.3,""y"":144,""cx"":201.1,""cy"":161.5,""angle_rad"":-2.239,""angle_deg"":231.7},{""word"":""arm"",""x"":422.9,""y"":555,""cx"":440.1,""cy"":572.5,""angle_rad"":1.186,""angle_deg"":68},{""word"":""rat"",""x"":313.8,""y"":488,""cx"":327.1,""cy"":505.5,""angle_rad"":1.717,""angle_deg"":98.4},{""word"":""excited"",""x"":280.4,""y"":345.7,""cx"":307.6,""cy"":363.2,""angle_rad"":2.84,""angle_deg"":162.7},{""word"":""ear"",""x"":409.4,""y"":534.7,""cx"":424.6,""cy"":552.2,""angle_rad"":1.217,""angle_deg"":69.7},{""word"":""society"",""x"":245.8,""y"":181.7,""cx"":272.6,""cy"":199.2,""angle_rad"":-2.045,""angle_deg"":242.8},{""word"":""toothbrush"",""x"":66.9,""y"":271,""cx"":105.1,""cy"":288.5,""angle_rad"":-2.895,""angle_deg"":194.1},{""word"":""process"",""x"":265.5,""y"":159,""cx"":295.1,""cy"":176.5,""angle_rad"":-1.877,""angle_deg"":252.4},{""word"":""splendor"",""x"":398.9,""y"":196.5,""cx"":430.8,""cy"":214,""angle_rad"":-1.035,""angle_deg"":300.7},{""word"":""air conditioner"",""x"":495.8,""y"":131.5,""cx"":544.8,""cy"":149,""angle_rad"":-0.801,""angle_deg"":314.1},{""word"":""tortoise"",""x"":259.6,""y"":494.7,""cx"":287.6,""cy"":512.2,""angle_rad"":1.938,""angle_deg"":111},{""word"":""status"",""x"":229.9,""y"":212.7,""cx"":253.6,""cy"":230.2,""angle_rad"":-2.248,""angle_deg"":231.2},{""word"":""trauma"",""x"":102.2,""y"":395,""cx"":129.1,""cy"":412.5,""angle_rad"":2.866,""angle_deg"":164.2},{""word"":""death"",""x"":212,""y"":145.7,""cx"":234.6,""cy"":163.2,""angle_rad"":-2.124,""angle_deg"":238.3},{""word"":""happy"",""x"":157.5,""y"":168.7,""cx"":181.6,""cy"":186.2,""angle_rad"":-2.37,""angle_deg"":224.2},{""word"":""identity"",""x"":182.4,""y"":206.7,""cx"":209.6,""cy"":224.2,""angle_rad"":-2.411,""angle_deg"":221.9},{""word"":""marriage"",""x"":194.9,""y"":172.7,""cx"":227.6,""cy"":190.2,""angle_rad"":-2.224,""angle_deg"":232.5},{""word"":""error"",""x"":392,""y"":336.5,""cx"":411.8,""cy"":354,""angle_rad"":0.065,""angle_deg"":3.7},{""word"":""ankle"",""x"":437.2,""y"":528.3,""cx"":459,""cy"":545.8,""angle_rad"":1.063,""angle_deg"":60.9},{""word"":""tiger"",""x"":238.4,""y"":459,""cx"":257.1,""cy"":476.5,""angle_rad"":2.205,""angle_deg"":126.3},{""word"":""apathy"",""x"":312.7,""y"":267.5,""cx"":338.8,""cy"":285,""angle_rad"":-1.741,""angle_deg"":260.2},{""word"":""disease"",""x"":159.6,""y"":74.5,""cx"":188.8,""cy"":92,""angle_rad"":-2.129,""angle_deg"":238},{""word"":""broom"",""x"":347.8,""y"":99.3,""cx"":372.7,""cy"":116.8,""angle_rad"":-1.474,""angle_deg"":275.6},{""word"":""sad"",""x"":358.5,""y"":267.5,""cx"":374.8,""cy"":285,""angle_rad"":-1.206,""angle_deg"":290.9},{""word"":""key"",""x"":532.9,""y"":416.5,""cx"":548.8,""cy"":434,""angle_rad"":0.4,""angle_deg"":22.9},{""word"":""heaven"",""x"":407.8,""y"":178.5,""cx"":435.8,""cy"":196,""angle_rad"":-1.062,""angle_deg"":299.1},{""word"":""obligation"",""x"":208.8,""y"":38.5,""cx"":243.8,""cy"":56,""angle_rad"":-1.917,""angle_deg"":250.1},{""word"":""data"",""x"":397.1,""y"":646.5,""cx"":415.8,""cy"":664,""angle_rad"":1.364,""angle_deg"":78.2},{""word"":""loving heart"",""x"":223.6,""y"":338.5,""cx"":264.8,""cy"":356,""angle_rad"":3.071,""angle_deg"":176},{""word"":""content"",""x"":227.8,""y"":340.5,""cx"":255.8,""cy"":358,""angle_rad"":3.057,""angle_deg"":175.1},{""word"":""phenomenon"",""x"":461.9,""y"":336.5,""cx"":507.8,""cy"":354,""angle_rad"":0.025,""angle_deg"":1.5},{""word"":""cabinet"",""x"":428.2,""y"":123.5,""cx"":455.8,""cy"":141,""angle_rad"":-1.102,""angle_deg"":296.8},{""word"":""miracle"",""x"":192.2,""y"":363.5,""cx"":219.8,""cy"":381,""angle_rad"":2.908,""angle_deg"":166.6},{""word"":""fear"",""x"":361.7,""y"":283.5,""cx"":378.8,""cy"":301,""angle_rad"":-1.039,""angle_deg"":300.4},{""word"":""knee"",""x"":395.6,""y"":516.5,""cx"":415.8,""cy"":534,""angle_rad"":1.227,""angle_deg"":70.3},{""word"":""comfortable"",""x"":209.2,""y"":311.5,""cx"":250.8,""cy"":329,""angle_rad"":-2.933,""angle_deg"":192},{""word"":""debt"",""x"":630.1,""y"":403.5,""cx"":648.8,""cy"":421,""angle_rad"":0.233,""angle_deg"":13.4},{""word"":""elephant"",""x"":300.9,""y"":408.5,""cx"":332.8,""cy"":426,""angle_rad"":1.793,""angle_deg"":102.8},{""word"":""effect"",""x"":626.8,""y"":219.5,""cx"":648.8,""cy"":237,""angle_rad"":-0.362,""angle_deg"":339.3},{""word"":""discipline"",""x"":589,""y"":303.5,""cx"":622.8,""cy"":321,""angle_rad"":-0.106,""angle_deg"":353.9},{""word"":""television"",""x"":469.6,""y"":146.5,""cx"":503.8,""cy"":164,""angle_rad"":-0.88,""angle_deg"":309.6},{""word"":""shoulder"",""x"":416.9,""y"":487.5,""cx"":448.8,""cy"":505,""angle_rad"":1.003,""angle_deg"":57.5},{""word"":""nose"",""x"":458.6,""y"":507.5,""cx"":478.8,""cy"":525,""angle_rad"":0.936,""angle_deg"":53.6},{""word"":""ax"",""x"":567.4,""y"":423.5,""cx"":579.8,""cy"":441,""angle_rad"":0.377,""angle_deg"":21.6},{""word"":""scenery"",""x"":125.2,""y"":558.5,""cx"":154.8,""cy"":576,""angle_rad"":2.283,""angle_deg"":130.8},{""word"":""panda"",""x"":366.3,""y"":406.5,""cx"":390.8,""cy"":424,""angle_rad"":1.067,""angle_deg"":61.1},{""word"":""fraud"",""x"":155.8,""y"":406.5,""cx"":176.8,""cy"":424,""angle_rad"":2.738,""angle_deg"":156.9},{""word"":""table"",""x"":558.6,""y"":99.5,""cx"":578.8,""cy"":117,""angle_rad"":-0.794,""angle_deg"":314.5}],""n_words"":89,""words"":[""proud"",""refrigerator"",""rabbit"",""agreement"",""lips"",""scissors"",""giraffe"",""system"",""fault"",""friendship"",""method"",""ant"",""depressed"",""sofa"",""violence"",""chopsticks"",""concept"",""sparrow"",""chair"",""business"",""magic power"",""result"",""hostility"",""dispute"",""relationship"",""pencil"",""anger"",""team"",""washing machine"",""thigh"",""charity"",""finger"",""characteristic"",""cat"",""eye"",""bed"",""computer mouse"",""microwave"",""reason"",""hammer"",""spoon"",""fate"",""arm"",""rat"",""excited"",""ear"",""society"",""toothbrush"",""process"",""splendor"",""air conditioner"",""tortoise"",""status"",""trauma"",""death"",""happy"",""identity"",""marriage"",""error"",""ankle"",""tiger"",""apathy"",""disease"",""broom"",""sad"",""key"",""heaven"",""obligation"",""data"",""loving heart"",""content"",""phenomenon"",""cabinet"",""miracle"",""fear"",""knee"",""comfortable"",""debt"",""elephant"",""effect"",""discipline"",""television"",""shoulder"",""nose"",""ax"",""scenery"",""panda"",""fraud"",""table""],""distance_matrix"":[[0,0.5512347940082211,0.16201211496494347,0.250203682953845,0.4553346522083838,0.36852462713416784,0.11379670372278365,0.5768948140789268,0.30102910453226805,0.3926965477084367,0.6515900448121384,0.23072611433863274,0.17280322285671784,0.5434992006315921,0.2339873367230813,0.5393369706191848,0.6078109613634941,0.17218328308108694,0.41274349328267107,0.5863211008255665,0.35126618605166227,0.6173217731303252,0.1868189901301781,0.2097936858899848,0.11065735361490049,0.47846951490864015,0.1795468317471597,0.11568723332466871,0.5941489328756551,0.4371713591947337,0.5565742660770994,0.45289640223147926,0.052780924082385335,0.2079188562980517,0.4683016848896209,0.5886941043184595,0.43253363499371134,0.5317408689335362,0.5759070732548761,0.37550796260768937,0.5215030119799967,0.3602541696024072,0.40167917686070487,0.21310887646042598,0.05787137547054017,0.3611532395366324,0.28255117788656536,0.29743757775304747,0.32076944986141326,0.3605873675541246,0.5637914754306684,0.20674227306893722,0.23499226979028254,0.22775923508899854,0.34484907353291816,0.334978381057717,0.26180265520096246,0.30494165558365016,0.2214599682538227,0.39272351776645614,0.15023249410038153,0.1798755039970043,0.47170348836026604,0.4433213359204442,0.21784544673828965,0.44385694362840883,0.3870168981733201,0.5122413454001811,0.5014467888355126,0.03473481088906731,0.03823878160775586,0.3726199738247147,0.4747294232280245,0.07769596943381325,0.20652425384424986,0.33032393571520774,0.08269791329780302,0.5981573552150313,0.11649143114375453,0.6363103563355539,0.5610986671102258,0.49916381725829806,0.33963251152512164,0.39696419889543805,0.49438677282323784,0.358045917055221,0.19677426004846263,0.16149636474924248,0.6379650443151632],[0.5512347940082211,0,0.6592590040697268,0.3269612331628892,0.6885319876868111,0.8504549240483351,0.6019517790675958,0.1440447579840318,0.8198228528250743,0.3769794674034112,0.42024042634572595,0.6421360312917602,0.37341634433548654,0.09011332311805972,0.7782840606565005,0.2339820442235748,0.4505450713361289,0.6323434100873291,0.18380342092836327,0.35817776547791685,0.37211266770176366,0.41808320085527195,0.36187562574075005,0.3369168658318586,0.6071128871093306,0.49566173915155065,0.367656714524732,0.6099210002250481,0.04175070574931753,0.6757929996137202,0.756425882333876,0.7230441223803321,0.5160642016913086,0.7454342411826033,0.7478131378657026,0.12126918789816077,0.21613353647100766,0.06127950352945422,0.413031500629086,0.8378181047576883,0.22229141450980253,0.48546138761727986,0.7209146255191357,0.6700473263943549,0.4937695737572105,0.6931824325370306,0.38770317956458256,0.6872305844312905,0.3430768264659166,0.18600624952540917,0.07004855200365791,0.7082313253300442,0.4335654788137354,0.7538480269973538,0.43310030358882357,0.5225229338108998,0.4953814241570167,0.45249921504745905,0.39519812605637433,0.6749158751414266,0.6859707769996479,0.3684026988098291,0.5028759068409412,0.20837251084988195,0.3298256497555197,0.49728615350755734,0.1592401700306742,0.42588141512182376,0.8707038125615693,0.5315170812761578,0.5440570027374373,0.3655804499338238,0.08210471122523784,0.6109383981929128,0.3462848042738212,0.6676401387743225,0.519622982719046,0.5229014640806818,0.5534929097725477,0.2866164084992689,0.3627227848642778,0.06353164289907048,0.6126835837928793,0.6391090139100017,0.5170343206210165,0.9099783758363615,0.5110294053311641,0.7075622518130927,0.10966902501588152],[0.16201211496494347,0.6592590040697268,0,0.39901694796341697,0.340684258027946,0.20507825648997094,0.05439937831441891,0.6510272628732754,0.34738490104334985,0.5568867064151536,0.6554375707865226,0.09765853613216963,0.2986724078174184,0.6304193319232023,0.2558264906185928,0.6879572223887817,0.5970637396989659,0.039958732088986273,0.5501914959056305,0.6017542825179285,0.3666031834504188,0.61766193539754,0.3004664804202644,0.32804539734997634,0.24373822807641557,0.44043121592080087,0.29827228386025384,0.24789355909898425,0.705024540852709,0.3241835283381378,0.4373938620537785,0.3250774124160117,0.21959803824805205,0.09598182720852809,0.3348706941167184,0.6692066870118892,0.49524353406410987,0.6528967289821648,0.5736140055183644,0.20893626070371188,0.669054962585413,0.5269943140835223,0.26455074536980444,0.055961222952693075,0.18471115727941653,0.22689546838509508,0.44643224067921056,0.42821518199746966,0.4809021627511252,0.47156283516841446,0.655385856022168,0.04518535196776906,0.40133173309227743,0.2837112401422267,0.5116107078545274,0.49988757444507437,0.4278457879077354,0.47197639639258654,0.2686667622304087,0.27220402211780637,0.05871955469204686,0.31535805984152016,0.6386453812659706,0.5882653806354654,0.3319833215812892,0.4030046767426124,0.5007594779368919,0.6777843960821026,0.3408452186527304,0.20174651140417646,0.20270476124704093,0.38751026002615874,0.5934243542028079,0.19698101059125542,0.31103312911817504,0.20153228286478325,0.24909107270525493,0.5632018443972128,0.10086073631142524,0.6771245502142221,0.5732903693749981,0.5984990966629572,0.23949160631596744,0.2924270171154135,0.449805875557198,0.26583743226186834,0.170656265650588,0.20696627386149918,0.7286242435264874],[0.250203682953845,0.3269612331628892,0.39901694796341697,0,0.5826551181079702,0.6085845227111956,0.3403144964769512,0.4001830487437033,0.4890927642746553,0.18211950097388546,0.5744768792350697,0.42707162621582506,0.10727281577224963,0.3508816504967749,0.4546471917228308,0.2850725477789475,0.5591446221925312,0.3894871569723343,0.16119413728624413,0.5004964282796162,0.32806685475818803,0.5502342359671754,0.12230656932795825,0.102213950071473,0.2795253126661724,0.4945513857632168,0.11636645204570459,0.28179236773753,0.3636915240035806,0.5651389897940542,0.6773927358879651,0.5989914510675778,0.20137912635038072,0.46229169387780633,0.6206239560323455,0.40092846787569836,0.30127426684248204,0.29213658842828627,0.5192587819427011,0.6080241078676855,0.2667881891717047,0.2254656408393618,0.5677891548226695,0.43318535325650764,0.20950306942959016,0.529631144216381,0.0969053204778412,0.36275009562206967,0.0955418072691069,0.15919395969179548,0.36189975893070264,0.44859243696036455,0.11458273263940437,0.42527137598568643,0.17865289805489787,0.23924978988442017,0.18479247603212737,0.16793860784112213,0.2323090331356266,0.5382941783253088,0.4032995222550543,0.08388667157347482,0.3076490636638224,0.1880903195441637,0.10901647303719492,0.47218882126125655,0.17354855995279883,0.3029901960551996,0.6990185378459081,0.21975566399304758,0.22934848249213038,0.341327651713873,0.24163944184612493,0.29118690660209817,0.1330950497911073,0.49792036575446924,0.19544095956066315,0.5877302937390804,0.30679020977045857,0.5040799247554375,0.484491389262264,0.2924610364890001,0.47221267735883365,0.521368119500066,0.5165325093542829,0.6109856303783727,0.3189193658262767,0.38697817686641733,0.4313509583992194],[0.4553346522083838,0.6885319876868111,0.340684258027946,0.5826551181079702,0,0.33954441514695044,0.35048335605950953,0.6057640521427058,0.6926291229841802,0.7694491050725131,0.4632867671526865,0.2383508178620602,0.4734436241099136,0.6174774295788056,0.6002655185451876,0.8220756847460106,0.3884597671118423,0.301821641194473,0.6720589100081107,0.44505878202655524,0.31196369881915326,0.42649982584491336,0.4554005944163115,0.4765610744951779,0.5658204734653715,0.22778890303654692,0.46215903781705264,0.5706705611091052,0.7333883260384245,0.01330332459966978,0.09626757695108415,0.041097161384880995,0.4982723605704266,0.4167908393518866,0.06251187244162157,0.6341825433304964,0.4690643400287763,0.7150014678544975,0.3880544955369746,0.3037501710199158,0.8019057130954445,0.7842612099127373,0.09461684874504536,0.2831428988664676,0.43023546256625994,0.11641312595444307,0.6699793776532628,0.7555816380836605,0.6829663632710217,0.5517871186757186,0.6476927090118003,0.3414893356315062,0.6467347829899712,0.6292958664574194,0.7510279354435562,0.7731906642625314,0.6983503405053618,0.7224452934770849,0.3475284508581638,0.06380196123036486,0.4031966573238978,0.4985311710844516,0.8856551634229355,0.72419105836894,0.4717751259205361,0.20498190422983967,0.5784058131114204,0.8905853658687473,0.21232844405408843,0.48804458726399685,0.49701662266358326,0.3180513183932931,0.6605146346888258,0.522357265370371,0.4460356433946717,0.13503217633818418,0.5331531465841842,0.31467427599475345,0.3338250193064153,0.5557599786753044,0.4175398911885533,0.6200892690739995,0.11194051096699342,0.056737370804776095,0.21820273257093145,0.5461425854488643,0.2694974344639487,0.5520505867345348,0.7057403558052566],[0.36852462713416784,0.8504549240483351,0.20507825648997094,0.6085845227111956,0.33954441514695044,0,0.26325185239575516,0.8212463280811966,0.4462963806047664,0.765840826840035,0.7667264480718111,0.20529488768805682,0.5054273331532535,0.8097795840409368,0.35854727816874316,0.8965429109600245,0.6977615018103879,0.21756716128324263,0.7561164907891175,0.7275096339499444,0.5147951084962418,0.7280087992873256,0.5042761781304744,0.5320543541612633,0.427569017828559,0.5287657342095345,0.5034459318194374,0.4306517854337622,0.8970128224322045,0.3309263630705323,0.40599116570854593,0.3009960376295173,0.42626580766846217,0.1799165469593773,0.29466629190168775,0.8432068035475755,0.6647860777976567,0.8510165476987582,0.684691171896412,0.03287419381462197,0.8774110755018455,0.7290271531515474,0.2399161730876374,0.1764528921844978,0.39468032791143676,0.22795228069458395,0.6554522800242474,0.5918266337811161,0.6908720014874036,0.6685252918696868,0.836981598713298,0.1570296910765591,0.6084539727444125,0.4069094073389785,0.7177560989585624,0.6976370787296174,0.6286169501585748,0.6767518631490145,0.45044509999477117,0.28218937667338406,0.22053283123283046,0.5235863089255969,0.8412658789568478,0.7962106182038081,0.5346694159708146,0.4940421762548038,0.6981825623605827,0.8857957558611129,0.2076335295919578,0.4075827754629247,0.4061670165631879,0.5326169717283454,0.791257428984065,0.38286810392893883,0.5116981601826733,0.22968825916062505,0.45295440936717585,0.6404783174716105,0.30102910453226805,0.8208175518684651,0.6980926133403921,0.7861879453114784,0.29897631625583626,0.3243792427482032,0.5293531194105957,0.22110782874292148,0.33574586265731454,0.34822742085993635,0.9078316244708481],[0.11379670372278365,0.6019517790675958,0.05439937831441891,0.3403144964769512,0.35048335605950953,0.26325185239575516,0,0.5989935453351761,0.3518931631103377,0.5016066110763304,0.6207000946489509,0.11421116071190326,0.23924316140762425,0.5760311769376769,0.26537001636231333,0.6288247766377141,0.566389692715325,0.05336873498108441,0.49076230411378813,0.5632749696122277,0.32512971562455084,0.5837059055181911,0.24130587939257733,0.26881924076715064,0.21269478346776519,0.4173422705602923,0.23893224947706043,0.21736248476172865,0.6474794928195033,0.3328591924704923,0.45056631242010586,0.3423597010175468,0.16923930216024388,0.14234645412518804,0.35573397783246735,0.6160737119035496,0.44444423511744263,0.5942606892211808,0.5400963144844042,0.26446129307582367,0.609861630906185,0.4777147481582815,0.28727122692374735,0.09496660840784937,0.1266769226086665,0.24724393645340445,0.3912782974330382,0.40201494994331494,0.42403725682331284,0.4133883967452477,0.6003407489403559,0.10460626882943001,0.3484954581144483,0.2825963050684222,0.4592165189345357,0.4536859944662228,0.38015212122904846,0.42089812447700103,0.2170209379781085,0.28446091320088807,0.0877211566923513,0.25606400076499747,0.5884959260428799,0.5289800388634576,0.27295915385716385,0.38036526742369936,0.44243439349642316,0.6233408151974534,0.3826462838851714,0.1529435804415162,0.15674938100094937,0.34657634132540727,0.5348943805167071,0.1677082291772225,0.25247343530795835,0.21779435913875358,0.20128717786884423,0.540402539113346,0.04714527369368426,0.6324862913118118,0.5354914879283876,0.5421253271844015,0.23955367811067835,0.2960284851431262,0.42927336462675375,0.31310355055952843,0.1330858912240117,0.20468655005435957,0.6739573065514018],[0.5768948140789268,0.1440447579840318,0.6510272628732754,0.4001830487437033,0.6057640521427058,0.8212463280811966,0.5989935453351761,0,0.8699740433897257,0.4978197505505688,0.2743571873356389,0.6113325732579425,0.40683711428734415,0.05435679195422102,0.8146846644733601,0.38073271044232027,0.31284896739960316,0.6165724963453625,0.2993532815760908,0.21813613932099493,0.30638040887101914,0.27656078309740223,0.38738456002622257,0.36913705358406385,0.655307318450222,0.38959295441045866,0.39636586656272116,0.6589637768259241,0.167114033263379,0.5958040421076206,0.6595408712429796,0.6453882201589859,0.5548772977693792,0.7463641178899926,0.6699798648996912,0.025853745547503946,0.15183738450134265,0.20810138363295344,0.2786571195608385,0.8025813025840518,0.36743242411528504,0.596535196180294,0.6556098092099816,0.6481831132545337,0.5146476916185371,0.6343133005305709,0.48286762246616216,0.7675896717709213,0.4462765922895122,0.236157966117858,0.06923540421921748,0.6964370796942138,0.5181155262867289,0.7994715727529478,0.5431819686159552,0.6268056630525375,0.586221472529076,0.5537761285724538,0.3774328596955175,0.6057041544529179,0.6897695640480268,0.4110114143751322,0.6312469214268007,0.3383265610994011,0.3591834287457159,0.40020802219200863,0.2236720636321743,0.5637025136917538,0.8057923459764049,0.5667437842419674,0.5808118507721385,0.29241425884720246,0.2006977344427975,0.6486242282948572,0.365955717082579,0.6134162795399019,0.5673341866928858,0.39261702627858697,0.5472064754500128,0.137556342623988,0.2283912250714994,0.11729034185538414,0.550256083160812,0.5647824580235491,0.4085259613291627,0.9166892296908601,0.48365341530183653,0.7421282343694136,0.09676772822325072],[0.30102910453226805,0.8198228528250743,0.34738490104334985,0.4890927642746553,0.6926291229841802,0.4462963806047664,0.3518931631103377,0.8699740433897257,0,0.5417483527447777,0.9570034855075314,0.4500727914450615,0.45822449914931396,0.8300043849883226,0.08817909791499169,0.7392308678782921,0.9107190875819943,0.38887746742205087,0.6506369831933436,0.8923311804242736,0.6562282067104831,0.9222085064940811,0.47888794351508807,0.4958208817394933,0.2098878809356074,0.7712811746006621,0.469298711316447,0.2064704316443432,0.85771986178837,0.6763880501061067,0.7875889163918446,0.6740187842926828,0.3107648599979695,0.2806433771650327,0.6809880731700318,0.8779425455302396,0.7334694197566171,0.7858405177440112,0.8802075148034542,0.47596150342110644,0.7260107331581802,0.4479373611152047,0.6108006648899297,0.40463565107406807,0.36262398140409685,0.5758244969594316,0.4582673137264418,0.20842875727239646,0.5089734761495388,0.6376501941088555,0.8463506258981459,0.35010912190364035,0.4012296154115458,0.06828119941950629,0.47002483105012555,0.3995422030477022,0.36648685557069427,0.42750199109530596,0.5274560023165028,0.6239064079233638,0.2844096085154981,0.45464994361277034,0.5442781226883224,0.6622606811563567,0.5058855833826469,0.7348823512394105,0.6594646332576986,0.6288646894049816,0.6493824068154747,0.30086786961944395,0.28632565825684403,0.6777473429956964,0.735548811189508,0.22045239633973696,0.501529203475381,0.5527948919904043,0.2982389163678049,0.8936521278239145,0.3911062793834168,0.9401071372207903,0.8669270060854255,0.7781613175906933,0.5907104830426413,0.6446643223366993,0.7845426872593311,0.26614548541037897,0.48330383508967123,0.14297171322376767,0.91893725486647],[0.3926965477084367,0.3769794674034112,0.5568867064151536,0.18211950097388546,0.7694491050725131,0.765840826840035,0.5016066110763304,0.4978197505505688,0.5417483527447777,0,0.7221870602797268,0.601407596198398,0.29162643877821837,0.43968943155761353,0.5384671849879186,0.20336138139375687,0.7192116689068884,0.5561297946983483,0.19363986310335402,0.6484586466350127,0.5075028925480654,0.7035557700181067,0.30905781633474644,0.2892331295756836,0.37010946112171467,0.674331675630056,0.3023324017041046,0.36990708419231366,0.3953750838745434,0.7518362451530507,0.8645274412342216,0.7846772532865652,0.3353558718162638,0.6009172050041871,0.8058633909827813,0.4875081050819253,0.4460511797038185,0.3175181523521276,0.6782955234959605,0.7706168440517531,0.19546708153754735,0.11086208538349906,0.7508576918307549,0.5998878460604287,0.3715293697540561,0.7118888817252227,0.10542472118381002,0.35512194149483184,0.0815533306226592,0.2880528852741422,0.43818501420478895,0.603792295530203,0.15572400562368902,0.494848918967083,0.06853509881944495,0.15731512744617546,0.17026326836588848,0.10923455204656439,0.4193948156362062,0.7235746820700766,0.5463246469685469,0.26681173633446426,0.13297594101080384,0.16471682370318894,0.29545649812678204,0.6545175924634811,0.2835511127802236,0.11822783315961007,0.8767885135536605,0.35445699902479855,0.358045917055221,0.5183121240444344,0.29609990712760115,0.40114653246059123,0.3201081743921198,0.6798783332073068,0.31251850087727995,0.7587917610006811,0.4773458119454843,0.6259604607713348,0.6375694889134378,0.3757987855999546,0.6579781005982226,0.7080236511317513,0.6967960691982582,0.7263983413168252,0.5024947036911792,0.4840234388444503,0.4916640563016929],[0.6515900448121384,0.42024042634572595,0.6554375707865226,0.5744768792350697,0.4632867671526865,0.7667264480718111,0.6207000946489509,0.2743571873356389,0.9570034855075314,0.7221870602797268,0,0.5786529315178198,0.5262478163312411,0.3252038455383773,0.8817423352971313,0.6475085718571765,0.0705355886553676,0.6119295147436352,0.5365021396289985,0.06916468225906157,0.29582105527011165,0.033710317814841094,0.5003992041132116,0.4966738324179647,0.757080723037934,0.23570123517338643,0.5116173676790395,0.761733997646792,0.4465009398205653,0.4611958812467377,0.47782193686217034,0.5091901499505342,0.6542413486292505,0.7562569953916529,0.5303939993803427,0.3029039406566826,0.27187466044737796,0.47999122573977354,0.0776347816671993,0.7379098815634,0.6317511831336348,0.800565208055353,0.5452507764914023,0.6273081051624319,0.5918430377998743,0.5406916243899335,0.673914976822351,0.9124107207026435,0.6517898704973357,0.4294073270471399,0.3474961572462869,0.688337679100039,0.6906559086600055,0.8837160471750318,0.7493700517249033,0.818687952865866,0.7610812024996914,0.7465840876807359,0.42549080288032415,0.49389382513841884,0.7112255914381849,0.5424766277564003,0.8601796118917862,0.5855419393503128,0.48562708715339287,0.2682736227288653,0.43464318123063395,0.8103584576183941,0.6806314707169323,0.6586093307710448,0.6731296095518173,0.27424850107987936,0.4562789231334012,0.7338147648933845,0.47671864941242736,0.5327792915783298,0.6789690350396925,0.15743601353302913,0.5717813215231125,0.14241510503555388,0.08734752770944382,0.3744811275110412,0.46300576525072823,0.44823177958894067,0.24081755094292093,0.9226795849607143,0.48289437866388896,0.8122536039878478,0.3620238474153594],[0.23072611433863274,0.6421360312917602,0.09765853613216963,0.42707162621582506,0.2383508178620602,0.20529488768805682,0.11421116071190326,0.6113325732579425,0.4500727914450615,0.601407596198398,0.5786529315178198,0,0.3167448565487125,0.599495959738389,0.3583767537609649,0.7063114221557322,0.5153354256040948,0.05938400965220879,0.5606365064543246,0.5315096546592436,0.3078336923365705,0.5401506355057576,0.31000686971490965,0.3372459506180147,0.3315776977355169,0.3520915796837743,0.311513042858577,0.3361761914387612,0.6888346883140521,0.22165341181401343,0.33614152556705706,0.2252924808444915,0.28303779090729403,0.18491718596613446,0.2373160720020377,0.6329920716416978,0.45469215553994524,0.6460952661394085,0.4960153207028237,0.1906659275651497,0.6865665817298614,0.5889466111839065,0.16823425457934715,0.046145036995233826,0.22730308990353512,0.12856508889632512,0.49267685736125766,0.5203360357029972,0.5194057951327773,0.4640721376643101,0.6268099074451681,0.10987045352904914,0.4555793601951663,0.38593882312395456,0.5659442881711558,0.568178442852176,0.49373102418138154,0.5301017623510088,0.2420237619777308,0.17020697144933072,0.16099531818493523,0.33842288870856235,0.6980098500776437,0.6048841542764352,0.33789210646162204,0.31489577640138444,0.49377850060255135,0.7244951757850349,0.27113296208414034,0.2684957003677062,0.2739947351776587,0.32677828853648044,0.586467720923007,0.286017232809084,0.31309162152512315,0.10053769769272805,0.31666622147025125,0.4730495367871684,0.11972736145579597,0.6176785729770875,0.5023077347858403,0.5770491330018388,0.13834375119729408,0.1899387948685949,0.35880117650622817,0.3412363334112086,0.1261333358974353,0.30868303633056693,0.6975148663295512],[0.17280322285671784,0.37341634433548654,0.2986724078174184,0.10727281577224963,0.4734436241099136,0.5054273331532535,0.23924316140762425,0.40683711428734415,0.45822449914931396,0.29162643877821837,0.5262478163312411,0.3167448565487125,0,0.3690660499950764,0.4049130311031844,0.38668764505978465,0.497882637411942,0.2836037095593644,0.24649051126090324,0.45481186333328216,0.24724579174916636,0.49685284350422093,0.0212027634116725,0.03291155351316877,0.2439669476917966,0.4077176482588392,0.010059759419536409,0.247808520115147,0.4165478610943972,0.45568252822031563,0.5698826207384888,0.4880240628051931,0.1431340191376368,0.37340965912851465,0.5092982312673004,0.415875190927189,0.2742346405418736,0.35603119861225446,0.46046639740794504,0.5020974495645496,0.367322368538322,0.3136960198183366,0.45560808590035323,0.32665527780459874,0.11680414861878155,0.41734790103331837,0.1924624399556883,0.3813013600046529,0.2056226595334963,0.1828009419309092,0.3878484832065367,0.34887382923210314,0.179577532582715,0.3876228401590662,0.27495547263953307,0.31357113442168544,0.24416845340172552,0.2517841736251563,0.13023554725467987,0.4269846116499526,0.3134403214505247,0.020119518839072818,0.40888063001449143,0.28589311884983676,0.042634699933269266,0.3809851246268996,0.20924535735921818,0.4139322289464818,0.5870875939061331,0.15602840802816456,0.16967428706656196,0.2646017001942163,0.29807202380580144,0.23762206916355832,0.044508690311878304,0.38562051315456636,0.15694474305825426,0.5121679753293489,0.19995854666150314,0.4834695931918374,0.43390890693865125,0.3220747648656726,0.3613235765201198,0.4118436861191944,0.4284541300935769,0.5332683074239071,0.2067334323592087,0.3328230630006497,0.4617527134869592],[0.5434992006315921,0.09011332311805972,0.6304193319232023,0.3508816504967749,0.6174774295788056,0.8097795840409368,0.5760311769376769,0.05435679195422102,0.8300043849883226,0.43968943155761353,0.3252038455383773,0.599495959738389,0.3690660499950764,0,0.7789426686105385,0.32274696984949197,0.3562051414870685,0.5986835147023347,0.24103587642491203,0.26328037744400923,0.3068017713699075,0.32309030504994285,0.35190025131581787,0.3311264305312367,0.6150994183708777,0.41249558444743906,0.3599675271956928,0.6185129290069482,0.12230656932795825,0.6060950197426858,0.6786690897985943,0.6547649626842635,0.5169761643273427,0.7227921500585135,0.6795445836787101,0.04519341252108188,0.14571839276096352,0.1511131744412942,0.31934081923549085,0.7935386995564402,0.3089488135891501,0.5401625385350036,0.6591693831416466,0.6329229521574156,0.4823586641787573,0.6348101239864578,0.42918271269892305,0.7186052284111453,0.39078023626256947,0.18902832910479675,0.025233113767241154,0.6774639686050112,0.4670421644122278,0.7606961504824563,0.4868390712673417,0.5718078131407524,0.5340082273852725,0.4991519749901959,0.3577496495258633,0.6108457304434423,0.6648495302511849,0.37040945264573044,0.572423532074797,0.2790432365263499,0.3219123014251651,0.4181411673196147,0.1724329445125733,0.5043159164411375,0.8097485336259815,0.5300911720846745,0.5437666475960425,0.2963098736753323,0.14138196150470247,0.611710087960916,0.3320621362046193,0.6116998324636355,0.5267357020586321,0.4306692058483451,0.5251036932656619,0.19481528652607855,0.2688561924770041,0.05891095143113604,0.5518893409098379,0.5721452555134771,0.43295973047162634,0.8916228932854017,0.4693413797155326,0.7067025425651968,0.09335539029406272],[0.2339873367230813,0.7782840606565005,0.2558264906185928,0.4546471917228308,0.6002655185451876,0.35854727816874316,0.26537001636231333,0.8146846644733601,0.08817909791499169,0.5384671849879186,0.8817423352971313,0.3583767537609649,0.4049130311031844,0.7789426686105385,0,0.7241205391291495,0.8320500097235223,0.2983014774051577,0.6203467178137183,0.8195081771632946,0.5812729951327795,0.8459889192464238,0.42255427460879785,0.44283282405496915,0.1712098129924426,0.6874039027352647,0.414068076732658,0.16971048693159815,0.8187808882620663,0.5842021194580552,0.694701506640534,0.5810320538868111,0.2577975794504046,0.18785141536627603,0.5878253370555904,0.8252812364579049,0.6715507180712309,0.7506247035001099,0.8032281252335499,0.38651994243506665,0.7090839862086311,0.4589059498912071,0.5176739516095568,0.3121092812227748,0.2968822550875542,0.482913252308428,0.4430301560627221,0.2505114746401031,0.49211244881231947,0.5906658903470566,0.7976623355609779,0.2569253670386349,0.3852702473692747,0.04964424177218028,0.4709272020700871,0.41430368330768913,0.36627977876802204,0.42671514179918535,0.45621036393323977,0.5314790747757301,0.19237184917154557,0.40583771553551096,0.564080505042113,0.6391511368597402,0.45201157313220686,0.6505701292009415,0.6148933570462497,0.63822271318003,0.5581482114526823,0.24385515547370007,0.2303824621808458,0.6029513035575002,0.6969690801068694,0.16265457201134897,0.44369910520565853,0.4602951636353263,0.25480126254248,0.8103212234323307,0.3083441401058741,0.8745880863447123,0.7931551369989386,0.731144180646985,0.5000286548817132,0.5532754394016639,0.6996453174129758,0.20371921819174738,0.4004919869211155,0.06758179548137012,0.8713896745273502],[0.5393369706191848,0.2339820442235748,0.6879572223887817,0.2850725477789475,0.8220756847460106,0.8965429109600245,0.6288247766377141,0.38073271044232027,0.7392308678782921,0.20336138139375687,0.6475085718571765,0.7063114221557322,0.38668764505978465,0.32274696984949197,0.7241205391291495,0,0.6660397739971582,0.6752676267353536,0.1452974814266106,0.5795556501280841,0.5171158496833941,0.639328945868195,0.3912850642483315,0.36407213886256906,0.5489788909130461,0.671628230274881,0.3902559469902302,0.5499416194147905,0.23115497638584925,0.806315833138951,0.9060598359199238,0.8475147003662155,0.48758258010357974,0.752026336787668,0.871151401971019,0.36006109006410403,0.3975048915854565,0.16803263236851848,0.6259704844940932,0.8938149442045004,0.015186232442661,0.3180322891036364,0.8281853545579251,0.718372344392265,0.49915147319303205,0.7932547846477134,0.27688794558768354,0.5620844068605233,0.22705173524531996,0.26716516406718943,0.30827954688251125,0.7378335978349985,0.33465827147751637,0.6857869546872384,0.2761187100598528,0.3656134886894925,0.37118252779036326,0.31271714052276167,0.4777390124615318,0.7907127966717337,0.693270224307302,0.36792815417778446,0.2941401604690809,0.09644973535258597,0.3640001607549548,0.6625187311785659,0.24351947712901134,0.20021140189492886,0.9692228933326703,0.5066179300654924,0.514569110611331,0.5196856672759051,0.18737863419481435,0.5706507851020177,0.3895512800181348,0.763093852533405,0.47494821997966874,0.7266404273088052,0.591660999992324,0.522585082028221,0.5779242819033701,0.2680791566615431,0.7240077635629597,0.7644266446739398,0.6944544251758412,0.8962215469063167,0.5857722628326832,0.6623671163726135,0.3380801857476507],[0.6078109613634941,0.4505450713361289,0.5970637396989659,0.5591446221925312,0.3884597671118423,0.6977615018103879,0.566389692715325,0.31284896739960316,0.9107190875819943,0.7192116689068884,0.0705355886553676,0.5153354256040948,0.497882637411942,0.3562051414870685,0.8320500097235223,0.6660397739971582,0,0.5527948919904042,0.5433374010934604,0.0899063516592454,0.25305858583472923,0.0385420611397169,0.4716636850638257,0.4719369341279163,0.7172090047666254,0.16420894246124773,0.48288400821875294,0.7220096109444591,0.4822847406300664,0.3868853915060782,0.4025649879652714,0.4344590080921605,0.6161979364924048,0.6971996950122694,0.45538834087047064,0.3432071136904837,0.27088797590220565,0.5053181346198734,0.036018376611171216,0.6679550183182217,0.6489611460017087,0.7887908609245681,0.4721865416161764,0.5650184841467106,0.5504106975405014,0.4693831910234284,0.6605493781395039,0.8808933584746494,0.6437254403574574,0.42729698625550455,0.3819767922958295,0.6271691360014444,0.6711874178490851,0.8377167315651183,0.7392836911973671,0.8025509152374777,0.740703824704433,0.7320966836029574,0.385056668175301,0.4212163841169027,0.655001392598542,0.5165373600821683,0.8567589498575445,0.5950161128644685,0.46121582316752985,0.19881991953493786,0.43749092174847964,0.81539577179651,0.6058096135334021,0.6186447808999501,0.6328929306339744,0.23261264128139167,0.47367357876903493,0.690522648868861,0.4487199151809587,0.463159796795372,0.6432823970205581,0.08494734388774075,0.5193745817975994,0.198962595491806,0.08341594616942721,0.3967627548896261,0.3937732929885946,0.3756625730562624,0.16705523592139462,0.8611104406793215,0.4283490628700086,0.7641980950981679,0.40848619502077277],[0.17218328308108694,0.6323434100873291,0.039958732088986273,0.3894871569723343,0.301821641194473,0.21756716128324263,0.05336873498108441,0.6165724963453625,0.38887746742205087,0.5561297946983483,0.6119295147436352,0.05938400965220879,0.2836037095593644,0.5986835147023347,0.2983014774051577,0.6752676267353536,0.5527948919904042,0,0.5336597875416996,0.5593715979255158,0.32600365833210015,0.574005210471055,0.2817041473099242,0.30948041829404305,0.26827825118686943,0.39550143444997743,0.28106815718745604,0.2727952881563843,0.6785638974486736,0.28480229044383576,0.4002799683360959,0.28970562073524436,0.22721770123690424,0.1394336596147592,0.30154011262155,0.6358723322188584,0.4600497274147801,0.6297942254547472,0.5299020248859782,0.21368881642315357,0.6559474913898231,0.5354749651273126,0.23209222177282643,0.03886399895507377,0.1796076802201674,0.19277732643076906,0.44613176922599984,0.45645532025376356,0.47685344010875236,0.4474692365944436,0.6244912656699272,0.07534564651085156,0.4050650690491719,0.3232203167879063,0.5158361558346324,0.5119807855864025,0.43830053356275495,0.47814414572164515,0.23590608369851185,0.23412215009796597,0.1026793306670219,0.3027601279429267,0.6459306152397669,0.5745202074675106,0.3120879806554178,0.35807030478406815,0.47701265144098004,0.6784510081440089,0.3243293168548148,0.21121985277892993,0.215144450781566,0.34657634132540727,0.5700725859377964,0.22234071278386847,0.28931479587402736,0.16492498474789372,0.2595867329993851,0.5182347702388028,0.07865377558123499,0.6372544448044046,0.5307243286383974,0.5698679885050019,0.19682440083804517,0.2510744858369908,0.40481736145103625,0.3070821610235216,0.13060910617354404,0.24555709185647148,0.6970609748112861],[0.41274349328267107,0.18380342092836327,0.5501914959056305,0.16119413728624413,0.6720589100081107,0.7561164907891175,0.49076230411378813,0.2993532815760908,0.6506369831933436,0.19363986310335402,0.5365021396289985,0.5606365064543246,0.24649051126090324,0.24103587642491203,0.6203467178137183,0.1452974814266106,0.5433374010934604,0.5336597875416996,0,0.4643551961589953,0.3705644105198071,0.5221639517171633,0.24707725515953688,0.21935603642127446,0.4446083108295596,0.5296523664211406,0.24764962066691032,0.4466153684872593,0.21094972287475658,0.6561898500154825,0.7571006409022458,0.697201226186243,0.36675428382729824,0.622017709455636,0.72082524534107,0.28892883053322593,0.2677651722039888,0.13376973974033868,0.5023941229818466,0.7510873125652487,0.1250822296214327,0.297577691386623,0.6782071221036761,0.5759790348474418,0.36516506394876186,0.6436299485007615,0.20112874647137985,0.5027903479071576,0.1546785040918541,0.12081013140499533,0.2401325150031613,0.6003941777403033,0.25104865182751823,0.5891848967507095,0.24479857958029883,0.3337128952958605,0.3088594804686227,0.2638357522277571,0.3278267568067378,0.6404134294623948,0.5622804618194474,0.23126876203396643,0.3273155921126956,0.04926021029510253,0.21781962058230386,0.5178232733478008,0.10230886109015504,0.2688268624654331,0.8201789518401624,0.384696060904544,0.3949225797177377,0.37491635997451667,0.09879846113509598,0.4574069044120325,0.24255391046401137,0.6137255725493017,0.3616143685458776,0.5950890502794771,0.45006848310900466,0.4303760145850711,0.45751521655749966,0.1771798992635792,0.5737347759997671,0.6141853920035171,0.5525881519651042,0.7753650751815171,0.43747162586119726,0.5531472961060863,0.2976462402209009],[0.5863211008255665,0.35817776547791685,0.6017542825179285,0.5004964282796162,0.44505878202655524,0.7275096339499444,0.5632749696122277,0.21813613932099493,0.8923311804242736,0.6484586466350127,0.06916468225906157,0.5315096546592436,0.45481186333328216,0.26328037744400923,0.8195081771632946,0.5795556501280841,0.0899063516592454,0.5593715979255158,0.4643551961589953,0,0.2339026426631312,0.05506865878121803,0.4291762160275324,0.4243511569578594,0.6893712926163112,0.21224724251443283,0.4403484304091059,0.6939414502275469,0.38841620436781993,0.44015283644104847,0.4750272786069965,0.489776979078984,0.5859864441173729,0.7027566813897936,0.5125636835597241,0.2483774867882784,0.19779499120376443,0.41506852221932106,0.060517964163038625,0.7009225984749974,0.5632117507992921,0.7263717934426377,0.5181483380080827,0.5783994169914014,0.5255358180860078,0.508486032286913,0.5997720470133865,0.841142778907148,0.5776417937720453,0.3555176027690224,0.2881808307207207,0.6376194289090198,0.6170171355868359,0.8190287619655039,0.6751835182603517,0.7446530127266046,0.6875090674880479,0.6724722692893124,0.35984637963239385,0.46613399055340665,0.6550533482882106,0.47031597429923133,0.7864639268215178,0.5141940561005206,0.4132615520366611,0.23829077869950333,0.3614432002252657,0.7380967606259198,0.6602919332341209,0.5912547757692429,0.6058581740925437,0.2122367626858129,0.3874350060163269,0.6679568415884041,0.40537023972063096,0.49672892149372555,0.6096182308346342,0.1744688321886631,0.5130502941636519,0.1107846707277468,0.024387392305996868,0.30759019415054595,0.4270741145980912,0.4208047687456919,0.22389568927282782,0.8714163040214666,0.4268896427136455,0.7490815351245241,0.31364247514444815],[0.35126618605166227,0.37211266770176366,0.3666031834504188,0.32806685475818803,0.31196369881915326,0.5147951084962418,0.32512971562455084,0.30638040887101914,0.6562282067104831,0.5075028925480654,0.29582105527011165,0.3078336923365705,0.24724579174916636,0.3068017713699075,0.5812729951327795,0.5171158496833941,0.25305858583472923,0.32600365833210015,0.3705644105198071,0.2339026426631312,0,0.26105608152006,0.22130604449341815,0.22767178501945706,0.45926439142584563,0.16189734681339626,0.23218988073130287,0.4640431482270267,0.41749274011723675,0.298789011376601,0.3866069035305811,0.3459146356609964,0.3581290028154024,0.46718676259319186,0.37069186597353665,0.3314598625793001,0.15606963731703574,0.39849956726300606,0.2197446900667993,0.4937444407862564,0.49731246909543586,0.5567305642633427,0.3473391322487927,0.3502984598835421,0.2926929874478254,0.3236694689114365,0.42906467953108746,0.6243900822723281,0.42386832001749886,0.2452623627353456,0.3365113603824251,0.4058524012110794,0.42885656462407395,0.5829616599764638,0.5116569575843435,0.5628748807341533,0.49576776405111894,0.4965279999572608,0.1269682904864794,0.2993443047102577,0.41743046270179435,0.2686466564496643,0.6395496466586921,0.4246201957201739,0.21808285041009257,0.14361349107185106,0.26884903347261635,0.6192307788480612,0.4979169703195374,0.3606574230078177,0.3749616368119627,0.016665758803343134,0.34531649748052917,0.43377703949629715,0.20026717310418063,0.3020468512330382,0.3856096652020906,0.25989274340015384,0.2744017817510997,0.3064145287702699,0.20696537880717114,0.30356564071305037,0.24022331035224298,0.2621161659935507,0.18427176650376603,0.637424292462823,0.1909267068932006,0.511465174150127,0.40067115681126597],[0.6173217731303252,0.41808320085527195,0.61766193539754,0.5502342359671754,0.42649982584491336,0.7280087992873256,0.5837059055181911,0.27656078309740223,0.9222085064940811,0.7035557700181067,0.033710317814841094,0.5401506355057576,0.49685284350422093,0.32309030504994285,0.8459889192464238,0.639328945868195,0.0385420611397169,0.574005210471055,0.5221639517171633,0.05506865878121803,0.26105608152006,0,0.4708132498253938,0.4685471449622153,0.7240924509694049,0.1975451145584105,0.48205783847553657,0.7287959734411005,0.4476621164819649,0.4239466779310206,0.44455026790712554,0.47227366402715554,0.6217367484669808,0.7183979967788585,0.4937816706086226,0.3064038057761609,0.25255423322229,0.47516704875402244,0.03914752829670017,0.6992580550356868,0.6228519405764936,0.7781484769086102,0.5072915792325654,0.5889336412435118,0.5582051036496505,0.5022527029465822,0.6506645331582825,0.882345327683047,0.6307804406202056,0.41051006397081613,0.34756149492557403,0.6501276018879818,0.6649288184855031,0.8489691174173117,0.7276192460689089,0.7944608058076863,0.7350791560666834,0.7229616414575906,0.39185347919826885,0.4558170485660099,0.6738802652204325,0.51400498927731,0.841501729589809,0.5726115010104077,0.45759441059807027,0.22970555842269072,0.41808021113686794,0.7955851130165762,0.6437392257478546,0.6255004210640828,0.6399509698275457,0.23967369062861768,0.4470849926585589,0.6997612913021762,0.4473395323802523,0.49412127713239157,0.6472646749004936,0.1285189678625127,0.5351745412013694,0.15659143423801794,0.06112040119578621,0.3676234835189889,0.424329826916602,0.4101421623886068,0.20351678223939365,0.884459386921512,0.4457360581616464,0.7769008122384559,0.3697579637036304],[0.1868189901301781,0.36187562574075005,0.3004664804202644,0.12230656932795825,0.4554005944163115,0.5042761781304744,0.24130587939257733,0.38738456002622257,0.47888794351508807,0.30905781633474644,0.5003992041132116,0.31000686971490965,0.0212027634116725,0.35190025131581787,0.42255427460879785,0.3912850642483315,0.4716636850638257,0.2817041473099242,0.24707725515953688,0.4291762160275324,0.22130604449341815,0.4708132498253938,0,0.022748538923939243,0.2655851279474353,0.382607125995075,0.006217273239920414,0.2696033948841757,0.4060224028067103,0.4378436737961965,0.5506670102088796,0.47178839095428887,0.16309906937215116,0.38014200600197856,0.4935789779222314,0.39774070210331397,0.25107122585710534,0.3488204240432596,0.43429491388715163,0.49900693481979014,0.37157323996897423,0.3368966667235667,0.4420128012708895,0.32387633521565434,0.12713139414550412,0.40451687525853475,0.21355459539660696,0.40701502942935425,0.22254057842658367,0.1708937135011279,0.3719427428223497,0.35060246438861337,0.20417490498748514,0.4075868836034854,0.29658714123072455,0.3383546701880546,0.2696885021672334,0.2752462832671866,0.10753159104858999,0.41127123743148913,0.32030319095826953,0.04305745392788572,0.4297711468971486,0.2898868990810921,0.027177064971220292,0.3564536860817234,0.19878888980658327,0.4303264764117639,0.5766730448179843,0.1743401725262117,0.18847345629303064,0.2384911114044797,0.2899158503882554,0.25621899287925254,0.01888189545689552,0.37314215394287287,0.1797660115322104,0.4862171274362771,0.19827310448139723,0.4599280217722209,0.40803932585764163,0.3076490636638224,0.3450222850259658,0.3940586665595188,0.4035282728444454,0.5431047089479251,0.19371721041397236,0.35011311125617606,0.4461197686367268],[0.2097936858899848,0.3369168658318586,0.32804539734997634,0.102213950071473,0.4765610744951779,0.5320543541612633,0.26881924076715064,0.36913705358406385,0.4958208817394933,0.2892331295756836,0.4966738324179647,0.3372459506180147,0.03291155351316877,0.3311264305312367,0.44283282405496915,0.36407213886256906,0.4719369341279163,0.30948041829404305,0.21935603642127446,0.4243511569578594,0.22767178501945706,0.4685471449622153,0.022748538923939243,0,0.28131565453139296,0.3921459332895503,0.025853745547503946,0.2850725477789475,0.38056215544318406,0.4592213418280077,0.5705155209727825,0.4944703523261399,0.1810212845273318,0.40671116999945023,0.5166245199742192,0.3779616894816583,0.23902007040711376,0.3220296700123095,0.43360620143323586,0.5267044907801818,0.3442971310588575,0.3249591344582793,0.46650233645915834,0.35161923790001415,0.1519416985450301,0.42947161433833314,0.19881793377379686,0.41285457291284805,0.2027080495104604,0.1459503196382219,0.3500133639951803,0.3782056303628941,0.19644603161967658,0.4254112860457669,0.28205898136847457,0.3302480326913034,0.26454483286054387,0.2641654102992082,0.12513617701204371,0.43442757584197367,0.34679839510060967,0.041097161384880995,0.41366040114308217,0.2626204601540132,0.006104233657905739,0.3678670974829389,0.17312303486910885,0.40918613514135255,0.6026183114080462,0.1939525684741477,0.20761568396101476,0.24322920784307636,0.26339798177300244,0.2755634825645812,0.025853745547503946,0.39831817826015925,0.19379357328440935,0.49152141452592996,0.22604916627197758,0.44839919956237917,0.40459198658998274,0.2845138689780474,0.36786370515120637,0.4155625140790362,0.41363018715921795,0.5685749207243513,0.2190680552228293,0.3707058379836876,0.4239719782573863],[0.11065735361490049,0.6071128871093306,0.24373822807641557,0.2795253126661724,0.5658204734653715,0.427569017828559,0.21269478346776519,0.655307318450222,0.2098878809356074,0.37010946112171467,0.757080723037934,0.3315776977355169,0.2439669476917966,0.6150994183708777,0.1712098129924426,0.5489788909130461,0.7172090047666254,0.26827825118686943,0.4446083108295596,0.6893712926163112,0.45926439142584563,0.7240924509694049,0.2655851279474353,0.28131565453139296,0,0.5929654938652892,0.2556130317713426,0,0.6462667121898997,0.547866363288297,0.6666507159390648,0.5598527087963581,0.09884657450438808,0.24534498248925832,0.573458639031543,0.663033964143558,0.5214328549037018,0.5764301757254917,0.6837845541894751,0.44314081371053193,0.5335655905156407,0.30594175706811405,0.5048310913604593,0.3029973418475127,0.16195515739866728,0.4649296304976537,0.26942314564671127,0.18476088583585218,0.317430290980563,0.42305100495404724,0.6316583259650392,0.2762752436887941,0.21224043068332873,0.1417180137683377,0.3073482474597367,0.26872720933764205,0.20647689103148886,0.26319658532487966,0.32743717903456787,0.5011766745085512,0.20374793982024472,0.23973463093411435,0.4170636480867778,0.46294373297077546,0.2915539395151259,0.5587767836797611,0.44544632681582896,0.4781580736651272,0.5893010132886954,0.09359937946075743,0.07928626856813491,0.4801228127146936,0.5241005562132816,0.04175070574931756,0.28874265503255564,0.43547387913306007,0.08335871819457157,0.7116388474515699,0.22906766039048942,0.729601228370056,0.6654664808721025,0.563702513691754,0.45161007048341145,0.5089047100008908,0.6093262252445547,0.351577595332329,0.31242288017382364,0.10928236736215369,0.7044791827056011],[0.47846951490864015,0.49566173915155065,0.44043121592080087,0.4945513857632168,0.22778890303654692,0.5287657342095345,0.4173422705602923,0.38959295441045866,0.7712811746006621,0.674331675630056,0.23570123517338643,0.3520915796837743,0.4077176482588392,0.41249558444743906,0.6874039027352647,0.671628230274881,0.16420894246124773,0.39550143444997743,0.5296523664211406,0.21224724251443283,0.16189734681339626,0.1975451145584105,0.382607125995075,0.3921459332895503,0.5929654938652892,0,0.3929636233301236,0.597953895680786,0.5367794610980685,0.22331142493903341,0.26575265620712,0.27267232542576897,0.49858643376185385,0.5385346780344764,0.29530718188097727,0.4196838226963375,0.27730520336459036,0.5353157961321623,0.15668681529786094,0.49873430695781085,0.6523720117421345,0.722087450425711,0.30477616889052234,0.4027638449447052,0.42804036811383644,0.30028870764395044,0.5950427381563848,0.7702068310284212,0.5907914633366443,0.4039274897288497,0.4424004681300619,0.46598788750146614,0.5917535943954695,0.6996121785101712,0.677911250624008,0.7259621768356507,0.6567996206068141,0.6613087955006531,0.27603644999964216,0.2532439377282079,0.5011978151778537,0.43064307496526194,0.8064161562423887,0.5839379994293277,0.3831028340341478,0.032408106616535176,0.4240899088095328,0.7850183715382467,0.44362016517100966,0.4968956646031515,0.5101265597227909,0.15179431659512177,0.48882132316947263,0.5600385464330377,0.36333112095730513,0.2940724998140039,0.5297506589592323,0.11810461648815519,0.3751505095380696,0.3240065361571565,0.1849438227725585,0.43013175565475187,0.22494620975378776,0.20756808828839773,0.01790990123536176,0.6982509159217821,0.2829763064892223,0.6233025647870797,0.49135834516247895],[0.1795468317471597,0.367656714524732,0.29827228386025384,0.11636645204570459,0.46215903781705264,0.5034459318194374,0.23893224947706043,0.39636586656272116,0.469298711316447,0.3023324017041046,0.5116173676790395,0.311513042858577,0.010059759419536409,0.3599675271956928,0.414068076732658,0.3902559469902302,0.48288400821875294,0.28106815718745604,0.24764962066691032,0.4403484304091059,0.23218988073130287,0.48205783847553657,0.006217273239920414,0.025853745547503946,0.2556130317713426,0.3929636233301236,0,0.2595723912833161,0.411403457552609,0.4445008284471751,0.5580036529158728,0.47769446582863867,0.15362276437873953,0.3759482311130338,0.4992479596032768,0.40620700713451197,0.26142815814020404,0.35279202965458323,0.44553617721569033,0.4990109503342745,0.3706827418021375,0.32748564918329826,0.4466833956826083,0.32365780788738857,0.1211136471154938,0.4088234143942097,0.20510161525709128,0.3958144226672886,0.21598248527334524,0.17663862462624916,0.3795109211121523,0.3484747039430997,0.1940344332291642,0.3982383224307427,0.2879219908608995,0.3281368380783269,0.2590559539908558,0.26569392797508107,0.1164601984225224,0.41691641323634904,0.3160180868320222,0.033276542909615056,0.42148790443072076,0.28904585625673124,0.033276542909615056,0.3664770492737482,0.20397357617614395,0.42411643871758925,0.5799302093786497,0.1654600429251616,0.1794371441953798,0.24951384113288727,0.2942416227697722,0.24731272370088414,0.02996304801720705,0.377274068114343,0.16935540422633386,0.49711236046418444,0.19742512170650908,0.4704467536796946,0.41926067334909584,0.314587215979703,0.35092074466508427,0.40067910768780557,0.41377821485291827,0.5377055618042752,0.1979492940829651,0.3417364625160881,0.453600278244166],[0.11568723332466871,0.6099210002250481,0.24789355909898425,0.28179236773753,0.5706705611091052,0.4306517854337622,0.21736248476172865,0.6589637768259241,0.2064704316443432,0.36990708419231366,0.761733997646792,0.3361761914387612,0.247808520115147,0.6185129290069482,0.16971048693159815,0.5499416194147905,0.7220096109444591,0.2727952881563843,0.4466153684872593,0.6939414502275469,0.4640431482270267,0.7287959734411005,0.2696033948841757,0.2850725477789475,0,0.597953895680786,0.2595723912833161,0,0.6489028449995913,0.5527251555664031,0.6714791245031005,0.5645804020224577,0.10323528702557681,0.24804855662473743,0.5781211504086583,0.6665315858558096,0.525532408642753,0.5788157557046018,0.688531987686811,0.4465241360280697,0.5346467737204861,0.3043463233369965,0.5094369277639951,0.3072909818611749,0.16681748984836875,0.46956660526349503,0.2699444020275114,0.17994622902619786,0.31822487956332096,0.42626580766846217,0.6349202747570307,0.2799796337039984,0.212596455738101,0.1389226062043088,0.3065908771834363,0.2665989001191394,0.20518828489656576,0.26237093922245414,0.332189701778122,0.5059640144264763,0.20720207854076525,0.24323430321149095,0.41524960460762195,0.4644253951998876,0.295359657355976,0.5637803559742033,0.44848567566651765,0.47725139612028317,0.5933355699865946,0.09835831584720413,0.08409981582964052,0.48488143685007534,0.526714292080182,0.04589377112371616,0.2928222523707121,0.4401642022762534,0.08675681178168776,0.7165887156904832,0.23402967250102175,0.733801067873536,0.6700879124788695,0.5668743001658219,0.4565201705032849,0.5138089781430241,0.6143299091278371,0.3521447082639786,0.3174517093962148,0.10914949759961472,0.7076563305291675],[0.5941489328756551,0.04175070574931753,0.705024540852709,0.3636915240035806,0.7333883260384245,0.8970128224322045,0.6474794928195033,0.167114033263379,0.85771986178837,0.3953750838745434,0.4465009398205653,0.6888346883140521,0.4165478610943972,0.12230656932795825,0.8187808882620663,0.23115497638584925,0.4822847406300664,0.6785638974486736,0.21094972287475658,0.38841620436781993,0.41749274011723675,0.4476621164819649,0.4060224028067103,0.38056215544318406,0.6462667121898997,0.5367794610980685,0.411403457552609,0.6489028449995913,0,0.7208904212894351,0.7997072541829282,0.768411241230331,0.5573322666178472,0.7903673137431397,0.7931965632797281,0.13937235161386113,0.259854971085318,0.07340302662848423,0.44611696471472373,0.8845237651865958,0.2230003701447576,0.5072488369373255,0.7671029226931283,0.7164799174184101,0.5375337111821562,0.7396337124231915,0.4170746766428194,0.7184597721065117,0.37029737151368436,0.23017280293614428,0.09527807945169244,0.7541385812274655,0.465667650265811,0.7928319889241981,0.45597027155908165,0.5468281124228255,0.524833701887992,0.47874697350540035,0.4418573120087821,0.7208326171389071,0.7307745454001058,0.4103328235980588,0.5150947054084821,0.22570978725916854,0.37386732311401893,0.5398943905283433,0.20241226292754555,0.4315943904170976,0.9170185513348063,0.5732313081100183,0.5854724284772741,0.41030845893388534,0.1171868822905942,0.6518654778964864,0.3911286319039891,0.7142270903201298,0.5593956912236621,0.5579415273957347,0.5993473723127135,0.3067618110398897,0.39557406798582156,0.10950347442963342,0.6589009050434216,0.6846196401466194,0.5577774740820228,0.9540957764284481,0.5577460063374803,0.7485830837502925,0.10220215401690493],[0.4371713591947337,0.6757929996137202,0.3241835283381378,0.5651389897940542,0.01330332459966978,0.3309263630705323,0.3328591924704923,0.5958040421076206,0.6763880501061067,0.7518362451530507,0.4611958812467377,0.22165341181401343,0.45568252822031563,0.6060950197426858,0.5842021194580552,0.806315833138951,0.3868853915060782,0.28480229044383576,0.6561898500154825,0.44015283644104847,0.298789011376601,0.4239466779310206,0.4378436737961965,0.4592213418280077,0.547866363288297,0.22331142493903341,0.4445008284471751,0.5527251555664031,0.7208904212894351,0,0.11452899612355048,0.04512409987096217,0.47996595257334274,0.4019363479204414,0.06928733769286845,0.6239155995330893,0.4570391102438183,0.7011624550712902,0.38457984283047747,0.2958114684273719,0.7861314263635091,0.7660883291523068,0.08673544752777848,0.26722673443550904,0.41190245938889236,0.10342405487442215,0.652066047620696,0.7376056705570114,0.6653854448357229,0.5365240969884216,0.6362639044492296,0.3263532008336321,0.6285648231657258,0.6126070918606519,0.7330147242550635,0.7549015024400915,0.6800514988967477,0.7042936832539624,0.33047421979472263,0.04878489709512758,0.3869609123843117,0.48075248099614565,0.8676527279239776,0.708121216580477,0.454566966890388,0.19820620521216784,0.5633809121360546,0.8731171833708006,0.21528028704135643,0.46978183996894457,0.47879709681417365,0.3057460728213298,0.6462617594191241,0.504532559890063,0.42876057661393974,0.11953100629902837,0.5148457224474781,0.3158592979981012,0.31565345317297155,0.5495960735598251,0.41223449259063333,0.6072828319975144,0.0936077157818589,0.03880949691506254,0.2154100143046102,0.5341681811979256,0.2512406404610148,0.535226617597079,0.6953065013682046],[0.5565742660770994,0.756425882333876,0.4373938620537785,0.6773927358879651,0.09626757695108415,0.40599116570854593,0.45056631242010586,0.6595408712429796,0.7875889163918446,0.8645274412342216,0.47782193686217034,0.33614152556705706,0.5698826207384888,0.6786690897985943,0.694701506640534,0.9060598359199238,0.4025649879652714,0.4002799683360959,0.7571006409022458,0.4750272786069965,0.3866069035305811,0.44455026790712554,0.5506670102088796,0.5705155209727825,0.6666507159390648,0.26575265620712,0.5580036529158728,0.6714791245031005,0.7997072541829282,0.11452899612355048,0,0.10899706065588911,0.5994914607962323,0.5072945421711224,0.10747369960657598,0.6892969636378463,0.5352626747500367,0.7887001993003668,0.4122320672924195,0.368353814694898,0.8860235679097477,0.8832526445739975,0.1738829486370827,0.37826560124088476,0.5311882547905772,0.20675953528282978,0.7671285288838673,0.8564398516256612,0.7779446129711827,0.6340611217692872,0.7088683914539827,0.43353343449114357,0.7457628112513502,0.7260185371700498,0.848813749971008,0.8732743583610497,0.7985632131047278,0.8212894537127599,0.44049042013505096,0.16126443991586834,0.49878344609848335,0.5950300264660497,0.9832902232326257,0.8101986488911814,0.564999643822766,0.25551230583571793,0.6592503395908711,0.984619948078587,0.23255754126195094,0.5893377273630094,0.5983067598760649,0.3884406386779611,0.7367425815098251,0.622872087109802,0.5397250184387077,0.23089051423547138,0.634367847346616,0.31734990038979566,0.43507985241138614,0.5901080934573009,0.4503391341898406,0.6888187360056665,0.21301787132205183,0.1566058349858073,0.2489279946944588,0.6240495364172632,0.3695379710077114,0.6493589203410689,0.7611240823492986],[0.45289640223147926,0.7230441223803321,0.3250774124160117,0.5989914510675778,0.041097161384880995,0.3009960376295173,0.3423597010175468,0.6453882201589859,0.6740187842926828,0.7846772532865652,0.5091901499505342,0.2252924808444915,0.4880240628051931,0.6547649626842635,0.5810320538868111,0.8475147003662155,0.4344590080921605,0.28970562073524436,0.697201226186243,0.489776979078984,0.3459146356609964,0.47227366402715554,0.47178839095428887,0.4944703523261399,0.5598527087963581,0.27267232542576897,0.47769446582863867,0.5645804020224577,0.768411241230331,0.04512409987096217,0.10899706065588911,0,0.499344427555747,0.3932686333240541,0.01977206900602138,0.6733366284798433,0.5052219531467307,0.7467942007136508,0.433490830087287,0.2643148012788902,0.8273031189312089,0.7929702297613814,0.060295459120619926,0.2652761554020354,0.4338607186662768,0.09333070087649568,0.6824953972773673,0.749386249524672,0.6985903188712701,0.5793806726444851,0.684883720513209,0.31960543049114226,0.6557529049163577,0.6132222201914993,0.7622097758561767,0.7790957479657703,0.7040295351969873,0.7316355943492902,0.36778227992926704,0.05682087218221395,0.3856980267707734,0.5128596862027771,0.8967926257513917,0.7484304032617115,0.4905728234134721,0.24826839026666742,0.6067759571565186,0.906826412859148,0.16643664654732632,0.4876416384949228,0.49550001868056953,0.3538406699445092,0.6911934167758068,0.5150947054084822,0.4644845374914713,0.11981858421409435,0.5341324027799547,0.3607119013058106,0.3324146998558788,0.5996131296965339,0.4619992590915528,0.6544888224627183,0.12174903411318175,0.07933126518164355,0.26382177832727294,0.513511443813511,0.27868387281044016,0.537012884918236,0.7446162780119032],[0.052780924082385335,0.5160642016913086,0.21959803824805205,0.20137912635038072,0.4982723605704266,0.42626580766846217,0.16923930216024388,0.5548772977693792,0.3107648599979695,0.3353558718162638,0.6542413486292505,0.28303779090729403,0.1431340191376368,0.5169761643273427,0.2577975794504046,0.48758258010357974,0.6161979364924048,0.22721770123690424,0.36675428382729824,0.5859864441173729,0.3581290028154024,0.6217367484669808,0.16309906937215116,0.1810212845273318,0.09884657450438808,0.49858643376185385,0.15362276437873953,0.10323528702557681,0.5573322666178472,0.47996595257334274,0.5994914607962323,0.499344427555747,0,0.26247745265191885,0.5160460918170052,0.5640093729123783,0.41818462948509755,0.4913862236275082,0.5819745380413773,0.43326542227675263,0.4702635193973123,0.3034897558064094,0.4511254159242189,0.2691716494957387,0.06669274814865084,0.4105005355321564,0.2254718971984856,0.266896135689658,0.2651694343620918,0.3278402479120928,0.5350888055874846,0.2645448328605439,0.17719260352643082,0.23959784294504016,0.2870735583992662,0.28021299768631736,0.20612852025151043,0.24742338569068836,0.22615315362666366,0.4382394672972309,0.2062869744539941,0.14303153083933592,0.4145597794091166,0.39368018533053045,0.19071582355234817,0.4658055509171666,0.35228634585771806,0.4545178343073352,0.5564295276007011,0.014320453890511677,0.023289727802752,0.3786315931756057,0.4361396051372898,0.09011332311805978,0.18579423738630596,0.3790270458303284,0.029854430286803207,0.6147954028970024,0.16239788502287572,0.6259604607713348,0.5623998546586216,0.46833765554027823,0.3814698214330397,0.4383562277936815,0.5161831383085045,0.4047371051650462,0.22968825916062505,0.18650223338714805,0.608683468173371],[0.2079188562980517,0.7454342411826033,0.09598182720852809,0.46229169387780633,0.4167908393518866,0.1799165469593773,0.14234645412518804,0.7463641178899926,0.2806433771650327,0.6009172050041871,0.7562569953916529,0.18491718596613446,0.37340965912851465,0.7227921500585135,0.18785141536627603,0.752026336787668,0.6971996950122694,0.1394336596147592,0.622017709455636,0.7027566813897936,0.46718676259319186,0.7183979967788585,0.38014200600197856,0.40671116999945023,0.24534498248925832,0.5385346780344764,0.3759482311130338,0.24804855662473743,0.7903673137431397,0.4019363479204414,0.5072945421711224,0.3932686333240541,0.26247745265191885,0,0.39810404367660535,0.7632898026783177,0.5917240454531951,0.7337653516999392,0.674313055179416,0.20121162685461422,0.7340139251157608,0.5526972358742447,0.32871444596488564,0.13401277285347776,0.2521690735643272,0.29647723817220395,0.4920700554390897,0.40731700835419155,0.5326742362373955,0.55529285022962,0.7466738211744383,0.07108069377262217,0.4405575087350114,0.2296060028572464,0.546647913860034,0.5182557535887482,0.45209094581289533,0.5040100502315048,0.3643153895335601,0.3482463275870989,0.054940547313028366,0.38596360637144916,0.6647661721287295,0.6551476285094331,0.41232891668162247,0.5011094982950924,0.5837282295216738,0.717124928996932,0.366950044442464,0.24312727850409732,0.23807519138935077,0.48820618753166883,0.6750593355764539,0.20260730758967202,0.39421078239121016,0.2775043333616348,0.283397650723575,0.6607445767646346,0.1943019114819176,0.7771285450001216,0.6743018826640469,0.6872175372115296,0.32749805092755646,0.3758685341361861,0.5467940030119336,0.16614129446128179,0.2713710493319772,0.1645375038442915,0.8204988882290324],[0.4683016848896209,0.7478131378657026,0.3348706941167184,0.6206239560323455,0.06251187244162157,0.29466629190168775,0.35573397783246735,0.6699798648996912,0.6809880731700318,0.8058633909827813,0.5303939993803427,0.2373160720020377,0.5092982312673004,0.6795445836787101,0.5878253370555904,0.871151401971019,0.45538834087047064,0.30154011262155,0.72082524534107,0.5125636835597241,0.37069186597353665,0.4937816706086226,0.4935789779222314,0.5166245199742192,0.573458639031543,0.29530718188097727,0.4992479596032768,0.5781211504086583,0.7931965632797281,0.06928733769286845,0.10747369960657598,0.01977206900602138,0.5160460918170052,0.39810404367660535,0,0.6979859908584264,0.5300226139512706,0.7713740494900859,0.4555465678600865,0.2573116927035914,0.8509368365541349,0.8120864253986592,0.06542435477863975,0.2743345478526676,0.45169411065155524,0.1037358464940321,0.7029419760568733,0.7625848072376837,0.7199448837946121,0.6034673723071294,0.7096676026391289,0.3258809330544344,0.675096795494254,0.6217121049016744,0.7821717491841177,0.7972312667608785,0.722153556986192,0.7509647888063237,0.3906702807309341,0.07730204552884828,0.39411888600814415,0.5340276111429773,0.9166553852256148,0.7718608091966417,0.5129518608088985,0.2718344564415917,0.6309688044097175,0.9282430407875408,0.14567475132114843,0.5037859994350409,0.5111719006765516,0.3786412866363667,0.7156645477458892,0.5282150422932361,0.48680990628459614,0.13315127008721825,0.5507232115093522,0.37986057795202494,0.3487102995478816,0.622981048506075,0.48497939072994484,0.6792562598263655,0.14375885927054596,0.10392641743760843,0.28564642917955085,0.5115481698730509,0.29896441542447866,0.5462310307073394,0.7692977453578309],[0.5886941043184595,0.12126918789816077,0.6692066870118892,0.40092846787569836,0.6341825433304964,0.8432068035475755,0.6160737119035496,0.025853745547503946,0.8779425455302396,0.4875081050819253,0.3029039406566826,0.6329920716416978,0.415875190927189,0.04519341252108188,0.8252812364579049,0.36006109006410403,0.3432071136904837,0.6358723322188584,0.28892883053322593,0.2483774867882784,0.3314598625793001,0.3064038057761609,0.39774070210331397,0.3779616894816583,0.663033964143558,0.4196838226963375,0.40620700713451197,0.6665315858558096,0.13937235161386113,0.6239155995330893,0.6892969636378463,0.6733366284798433,0.5640093729123783,0.7632898026783177,0.6979859908584264,0,0.1735750507830312,0.18701103300212737,0.3093476617492132,0.8253953087988289,0.3477520567887591,0.5893732474016677,0.6821598262308088,0.6685751340322688,0.5269908426560772,0.6600109169797047,0.47927383228823894,0.7686897868870839,0.44045489855067826,0.23849111140447962,0.04697528205084437,0.7153568604517526,0.5172564180465261,0.8081925413335287,0.5360913962717281,0.6215725810403769,0.5842176408782304,0.5490407200221044,0.3955740679858215,0.6326193801767547,0.7060242384462723,0.41827267601070106,0.6189509754485113,0.3243694501887724,0.3684331846228381,0.4295819985840872,0.22257981911138208,0.5477925728203954,0.8325394912955469,0.5766469487579527,0.5904896103469949,0.3184230652786946,0.1871747174888842,0.658430130089305,0.37716486063244015,0.6384507918431755,0.5747496730397528,0.42341726985392025,0.5646137128899449,0.1625564734104919,0.25914656620211557,0.10794663799145693,0.576187901607603,0.5922034733281897,0.43881532453870165,0.9330069504110036,0.5042066286250753,0.7528780296842719,0.06682877813684067],[0.43253363499371134,0.21613353647100766,0.49524353406410987,0.30127426684248204,0.4690643400287763,0.6647860777976567,0.44444423511744263,0.15183738450134265,0.7334694197566171,0.4460511797038185,0.27187466044737796,0.45469215553994524,0.2742346405418736,0.14571839276096352,0.6715507180712309,0.3975048915854565,0.27088797590220565,0.4600497274147801,0.2677651722039888,0.19779499120376443,0.15606963731703574,0.25255423322229,0.25107122585710534,0.23902007040711376,0.5214328549037018,0.27730520336459036,0.26142815814020404,0.525532408642753,0.259854971085318,0.4570391102438183,0.5352626747500367,0.5052219531467307,0.41818462948509755,0.5917240454531951,0.5300226139512706,0.1735750507830312,0,0.2530034396425621,0.2298667952072947,0.6467904056874749,0.3792608303699369,0.5242511479744419,0.5084368362446969,0.4913252151517205,0.36964025194179967,0.4841981065036567,0.3986108060165216,0.6550869802779137,0.3749341717271036,0.15296872222960467,0.17542114708581377,0.540079003017308,0.41983492188955,0.6613276274690397,0.47271322135841987,0.5443083815565507,0.4904486072622041,0.4715488737382553,0.22239378272461213,0.46028075538088803,0.5360809232305999,0.28460708606364327,0.5840339767368351,0.32015194077885295,0.22804814653688038,0.27651913656919014,0.16157337349729092,0.5395050463452676,0.6590116696981243,0.42760042207031174,0.44211805270721444,0.1463514510695396,0.20866093545707728,0.5087637524780259,0.22768749475576744,0.4614793020210775,0.43581013902955584,0.32443430607351204,0.39239409064771946,0.20435054640274639,0.18673945421213803,0.14880831488765364,0.4011538200259808,0.4221083226280339,0.299378589925226,0.7625613072248167,0.3267940714850593,0.5990365599854605,0.24071637146854727],[0.5317408689335362,0.06127950352945422,0.6528967289821648,0.29213658842828627,0.7150014678544975,0.8510165476987582,0.5942606892211808,0.20810138363295344,0.7858405177440112,0.3175181523521276,0.47999122573977354,0.6460952661394085,0.35603119861225446,0.1511131744412942,0.7506247035001099,0.16803263236851848,0.5053181346198734,0.6297942254547472,0.13376973974033868,0.41506852221932106,0.39849956726300606,0.47516704875402244,0.3488204240432596,0.3220296700123095,0.5764301757254917,0.5353157961321623,0.35279202965458323,0.5788157557046018,0.07340302662848423,0.7011624550712902,0.7887001993003668,0.7467942007136508,0.4913862236275082,0.7337653516999392,0.7713740494900859,0.18701103300212737,0.2530034396425621,0,0.4665559876197867,0.8412021113305211,0.15599698815120974,0.4288974667914481,0.7391084828499753,0.6695761918575831,0.4778635639960496,0.708846578546373,0.3398010799025159,0.6415748026599617,0.2924142588472025,0.17746216940935858,0.1352229744102717,0.7027103724849382,0.3896164824696681,0.7224270698949711,0.37754377619625795,0.4684064357863003,0.4474131543598964,0.40053671663552415,0.40024841348699053,0.6954554110741095,0.6738399244946346,0.3468415379756137,0.43973988934384867,0.1477729484986952,0.31674540692653225,0.5330138395441609,0.1478117699249626,0.3603234233568515,0.8871998096102566,0.5081192765684819,0.5196893798955166,0.3952434473491959,0.05472924032560239,0.5848897577026055,0.3368345081354772,0.6815948339910468,0.49079366033185967,0.5732810512206191,0.5483171064657336,0.3504397299438997,0.4169177923026577,0.1039774895439713,0.6311509682895667,0.6624386449484732,0.5574113054220574,0.8940773194023565,0.5162790930938468,0.681503448689406,0.17199573448398206],[0.5759070732548761,0.413031500629086,0.5736140055183644,0.5192587819427011,0.3880544955369746,0.684691171896412,0.5400963144844042,0.2786571195608385,0.8802075148034542,0.6782955234959605,0.0776347816671993,0.4960153207028237,0.46046639740794504,0.31934081923549085,0.8032281252335499,0.6259704844940932,0.036018376611171216,0.5299020248859782,0.5023941229818466,0.060517964163038625,0.2197446900667993,0.03914752829670017,0.43429491388715163,0.43360620143323586,0.6837845541894751,0.15668681529786094,0.44553617721569033,0.688531987686811,0.44611696471472373,0.38457984283047747,0.4122320672924195,0.433490830087287,0.5819745380413773,0.674313055179416,0.4555465678600865,0.3093476617492132,0.2298667952072947,0.4665559876197867,0,0.6562780001381651,0.6087488870992971,0.7486071539147504,0.46629089145230207,0.5447613744842493,0.5174230260056201,0.46003759636379166,0.6204875464829718,0.8447440555392594,0.6031047099333069,0.3862708399572714,0.34591733903624633,0.6059547246235615,0.6320573132363869,0.8070288012185195,0.6988939775449078,0.7629589307396838,0.7017927562371056,0.6922269878186689,0.3513185502287799,0.41458353546560356,0.6300428599254754,0.478555845444542,0.8158936426923502,0.5541784066018436,0.42279384159664857,0.18732603122372546,0.39646670076547297,0.7743580560274077,0.6048023280135438,0.5851552950987682,0.5995273467753192,0.19866472362416915,0.4336984766659682,0.6584892335351028,0.4111147794287106,0.45115553127808417,0.6082566518471461,0.10977925945240143,0.49184739270043126,0.1758920337938532,0.0455197857626019,0.3577496495258633,0.38130286620366927,0.3689240023721994,0.16492498474789372,0.8402847667266983,0.4020518059253418,0.7344770552527684,0.37650564382158375],[0.37550796260768937,0.8378181047576883,0.20893626070371188,0.6080241078676855,0.3037501710199158,0.03287419381462197,0.26446129307582367,0.8025813025840518,0.47596150342110644,0.7706168440517531,0.7379098815634,0.1906659275651497,0.5020974495645496,0.7935386995564402,0.38651994243506665,0.8938149442045004,0.6679550183182217,0.21368881642315357,0.7510873125652487,0.7009225984749974,0.4937444407862564,0.6992580550356868,0.49900693481979014,0.5267044907801818,0.44314081371053193,0.49873430695781085,0.4990109503342745,0.4465241360280697,0.8845237651865958,0.2958114684273719,0.368353814694898,0.2643148012788902,0.43326542227675263,0.20121162685461422,0.2573116927035914,0.8253953087988289,0.6467904056874749,0.8412021113305211,0.6562780001381651,0,0.8744231775715676,0.7392460626147869,0.2043215449042257,0.17041373777287078,0.3960001300437038,0.19521998541667712,0.6601800315993711,0.6131403721406002,0.6935223423564034,0.6588999142888985,0.8212724762300887,0.16474625729739445,0.6152360747487121,0.43308835027574744,0.7253685806975566,0.7098450365984883,0.6393387420010269,0.6853089708398645,0.43771349258184544,0.24836785223613067,0.2344047575157943,0.5214769204058239,0.8512567002612428,0.7929046476161724,0.5285563931443364,0.46470724443081884,0.6886134745588934,0.8917285266616802,0.17224380475402593,0.4150939055511426,0.4149812797869166,0.5107873622842519,0.7815019172660648,0.39744624738394574,0.5047426098642681,0.20010955722772672,0.4617187829553898,0.6084007716454559,0.2971502903100446,0.7966917340339659,0.6715319088991215,0.772571759217998,0.26994532210074185,0.29156366397471706,0.49832835532781256,0.2582269320159164,0.3217670991146734,0.3707761278301813,0.8911889436008588],[0.5215030119799967,0.22229141450980253,0.669054962585413,0.2667881891717047,0.8019057130954445,0.8774110755018455,0.609861630906185,0.36743242411528504,0.7260107331581802,0.19546708153754735,0.6317511831336348,0.6865665817298614,0.367322368538322,0.3089488135891501,0.7090839862086311,0.015186232442661,0.6489611460017087,0.6559474913898231,0.1250822296214327,0.5632117507992921,0.49731246909543586,0.6228519405764936,0.37157323996897423,0.3442971310588575,0.5335655905156407,0.6523720117421345,0.3706827418021375,0.5346467737204861,0.2230003701447576,0.7861314263635091,0.8860235679097477,0.8273031189312089,0.4702635193973123,0.7340139251157608,0.8509368365541349,0.3477520567887591,0.3792608303699369,0.15599698815120974,0.6087488870992971,0.8744231775715676,0,0.311061144098721,0.80799848249894,0.6989808055172907,0.4805073553107926,0.7731026556204619,0.26293546891035785,0.5519688341219435,0.2126018033052257,0.24724122869996604,0.2957987275451499,0.7189883099150913,0.32050998147551657,0.6715310114305231,0.26716767362235533,0.3577173591764623,0.35968301805014724,0.3021897214076826,0.4575526549328207,0.7704974872808055,0.6751114143463527,0.3488461624898051,0.294279408684574,0.07665651273896,0.3441044298364343,0.6429543960029132,0.2238972917334929,0.2043602126762886,0.9491354376179528,0.4892216209830344,0.49742650416714357,0.5000700797544754,0.17074797292390717,0.5543016547935227,0.3695997346080665,0.7429670816886064,0.45838213992455923,0.7085963291916554,0.5723107914519268,0.5087174638938011,0.5609948451612107,0.2527530011791286,0.7037941109673527,0.744226276188972,0.6752180517844709,0.8793459077999094,0.5657423331857204,0.6466164961981213,0.3291674560234336],[0.3602541696024072,0.48546138761727986,0.5269943140835223,0.2254656408393618,0.7842612099127373,0.7290271531515474,0.4777147481582815,0.596535196180294,0.4479373611152047,0.11086208538349906,0.800565208055353,0.5889466111839065,0.3136960198183366,0.5401625385350036,0.4589059498912071,0.3180322891036364,0.7887908609245681,0.5354749651273126,0.297577691386623,0.7263717934426377,0.5567305642633427,0.7781484769086102,0.3368966667235667,0.3249591344582793,0.30594175706811405,0.722087450425711,0.32748564918329826,0.3043463233369965,0.5072488369373255,0.7660883291523068,0.8832526445739975,0.7929702297613814,0.3034897558064094,0.5526972358742447,0.8120864253986592,0.5893732474016677,0.5242511479744419,0.4288974667914481,0.7486071539147504,0.7392460626147869,0.311061144098721,0,0.7511971036217141,0.5776811962234562,0.35776757187035574,0.7109090349376078,0.12353782071100847,0.2481934684203226,0.14637701912123618,0.36974962686317964,0.542016516942981,0.5695064430511834,0.1324979224509828,0.41030845893388534,0.04832337050815702,0.04502538463910393,0.09561221907656418,0.05710369317798412,0.4489170845599494,0.7311199519002083,0.5038612242913986,0.28917956136940764,0.10723383535357385,0.2770232879463617,0.3339703556584657,0.6976274652657564,0.3722927078769073,0.1760006550182392,0.8641390684149958,0.3205084271497144,0.31940453589302187,0.5709322875064918,0.4014028889619754,0.34536881215568893,0.35430755710836803,0.678834644762488,0.2728742288639146,0.8180520192162122,0.4649480951163587,0.7171311299192712,0.7120961068888104,0.47645741461450153,0.6685751340322688,0.7225653699047788,0.7436182341033547,0.6583690001481827,0.5101151168041657,0.41428455728176034,0.5998903554566333],[0.40167917686070487,0.7209146255191357,0.26455074536980444,0.5677891548226695,0.09461684874504536,0.2399161730876374,0.28727122692374735,0.6556098092099816,0.6108006648899297,0.7508576918307549,0.5452507764914023,0.16823425457934715,0.45560808590035323,0.6591693831416466,0.5176739516095568,0.8281853545579251,0.4721865416161764,0.23209222177282643,0.6782071221036761,0.5181483380080827,0.3473391322487927,0.5072915792325654,0.4420128012708895,0.46650233645915834,0.5048310913604593,0.30477616889052234,0.4466833956826083,0.5094369277639951,0.7671029226931283,0.08673544752777848,0.1738829486370827,0.060295459120619926,0.4511254159242189,0.32871444596488564,0.06542435477863975,0.6821598262308088,0.5084368362446969,0.7391084828499753,0.46629089145230207,0.2043215449042257,0.80799848249894,0.7511971036217141,0,0.20392515090767982,0.38898259383535044,0.03559523531275605,0.6457695769237449,0.693527883584502,0.6657399877239202,0.5653876200001348,0.6888644771286275,0.25580874138455045,0.6149964778773798,0.5512689040040049,0.7234466453293823,0.7342938980612923,0.65930116323978,0.6906763827246699,0.3454164626191033,0.04700203180264794,0.32366804498017887,0.4798201040643741,0.8574616797357824,0.7276860965754036,0.4639112304037705,0.275012665160773,0.5938654164937928,0.8738413056764321,0.1455538320943851,0.4380632411018748,0.44479083132876085,0.3588134843323293,0.6817628332950847,0.4592591875409921,0.4376850915938856,0.06738536677356499,0.48554906630171296,0.40516888400580325,0.2838076067963162,0.6234353038625204,0.48941404997801335,0.65257748610407,0.10322290113720689,0.09242447775230339,0.30013230463489726,0.4487989158558488,0.24384875130814282,0.4757885792586701,0.7523269434306712],[0.21310887646042598,0.6700473263943549,0.055961222952693075,0.43318535325650764,0.2831428988664676,0.1764528921844978,0.09496660840784937,0.6481831132545337,0.40463565107406807,0.5998878460604287,0.6273081051624319,0.046145036995233826,0.32665527780459874,0.6329229521574156,0.3121092812227748,0.718372344392265,0.5650184841467106,0.03886399895507377,0.5759790348474418,0.5783994169914014,0.3502984598835421,0.5889336412435118,0.32387633521565434,0.35161923790001415,0.3029973418475127,0.4027638449447052,0.32365780788738857,0.3072909818611749,0.7164799174184101,0.26722673443550904,0.37826560124088476,0.2652761554020354,0.2691716494957387,0.13401277285347776,0.2743345478526676,0.6685751340322688,0.4913252151517205,0.6695761918575831,0.5447613744842493,0.17041373777287078,0.6989808055172907,0.5776811962234562,0.20392515090767982,0,0.22342601639954457,0.16692389831106708,0.4898191343268655,0.48875215866602917,0.5207429435084479,0.48709171063984086,0.6593818942012516,0.05869573855921337,0.44819644607329157,0.34291638920727197,0.558957458255231,0.5530890270646251,0.4798670641943944,0.5208616398118857,0.2710474753310677,0.2143426598823,0.11548796946025729,0.3461880757188118,0.68849029217821,0.6174714349146919,0.3538073227964975,0.36548875878426845,0.5167360556321023,0.7221125020400484,0.2838706657459316,0.2525841392141662,0.25555449411056874,0.3700411373893309,0.6098180156960727,0.2563958621289225,0.3304790835748448,0.14315911796041345,0.3008179936172577,0.5240196014071997,0.12174643983844122,0.6614683568028534,0.5493503553999883,0.6065611760165323,0.1885462678362422,0.23824757252618983,0.4097981171037218,0.29108243251558896,0.15950132216157945,0.2669203247206646,0.7312681300016862],[0.05787137547054017,0.4937695737572105,0.18471115727941653,0.20950306942959016,0.43023546256625994,0.39468032791143676,0.1266769226086665,0.5146476916185371,0.36262398140409685,0.3715293697540561,0.5918430377998743,0.22730308990353512,0.11680414861878155,0.4823586641787573,0.2968822550875542,0.49915147319303205,0.5504106975405014,0.1796076802201674,0.36516506394876186,0.5255358180860078,0.2926929874478254,0.5582051036496505,0.12713139414550412,0.1519416985450301,0.16195515739866728,0.42804036811383644,0.1211136471154938,0.16681748984836875,0.5375337111821562,0.41190245938889236,0.5311882547905772,0.4338607186662768,0.06669274814865084,0.2521690735643272,0.45169411065155524,0.5269908426560772,0.36964025194179967,0.4778635639960496,0.5174230260056201,0.3960001300437038,0.4805073553107926,0.35776757187035574,0.38898259383535044,0.22342601639954457,0,0.3485316676478311,0.26170080460119066,0.3382804690027085,0.2925976701308073,0.3027349743600726,0.5033252095879734,0.2340931621140952,0.22329009538682165,0.28951989327280836,0.33361590030802174,0.3405525072084748,0.26548694605256645,0.2981387918554073,0.1613541011121223,0.37226045518025463,0.19227442089387223,0.12888853043724274,0.4659099974804756,0.4003390139367995,0.15897104322853414,0.3948062652826121,0.33009406125722696,0.49402514296117506,0.5034307062750932,0.06400382210385314,0.07777666805543586,0.31374181739042617,0.41979722657068236,0.13746475709962191,0.1453482145035638,0.31656742857096,0.10042835885625391,0.5454106117447748,0.10260108426678335,0.5736115570597049,0.50079669160414,0.43969534798665166,0.31326526413223454,0.3696495027852317,0.4452656732776996,0.41166667906590537,0.15887691424015754,0.2243970437698427,0.5775767250480928],[0.3611532395366324,0.6931824325370306,0.22689546838509508,0.529631144216381,0.11641312595444307,0.22795228069458395,0.24724393645340445,0.6343133005305709,0.5758244969594316,0.7118888817252227,0.5406916243899335,0.12856508889632512,0.41734790103331837,0.6348101239864578,0.482913252308428,0.7932547846477134,0.4693831910234284,0.19277732643076906,0.6436299485007615,0.508486032286913,0.3236694689114365,0.5022527029465822,0.40451687525853475,0.42947161433833314,0.4649296304976537,0.30028870764395044,0.4088234143942097,0.46956660526349503,0.7396337124231915,0.10342405487442215,0.20675953528282978,0.09333070087649568,0.4105005355321564,0.29647723817220395,0.1037358464940321,0.6600109169797047,0.4841981065036567,0.708846578546373,0.46003759636379166,0.19521998541667712,0.7731026556204619,0.7109090349376078,0.03559523531275605,0.16692389831106708,0.3485316676478311,0,0.6062878031214597,0.653899605316796,0.6270575944540162,0.5329972406545638,0.6641866465132383,0.22197879489671374,0.5748805684852987,0.5148668669129416,0.6835696541095387,0.693752393114456,0.6187745770729435,0.6505025929939808,0.31088132478493113,0.0506252335610944,0.2873387308752493,0.44134886316348076,0.8174526299093493,0.6924147172341677,0.4272937091332267,0.26768461346447103,0.5618174347787546,0.8349797294428456,0.1733478386031847,0.3974563048744007,0.40424003035400663,0.33687424653580866,0.6508997604077098,0.41954822243764744,0.40111252209312254,0.027125177849162595,0.44492562786021733,0.40815286416783,0.2431919065612359,0.6102144300632057,0.4793469617956386,0.6251557981815979,0.07933846241276447,0.0914269000385215,0.29865358047437396,0.42577712988377714,0.20585156875569938,0.43874144489126865,0.7293612896808891],[0.28255117788656536,0.38770317956458256,0.44643224067921056,0.0969053204778412,0.6699793776532628,0.6554522800242474,0.3912782974330382,0.48286762246616216,0.4582673137264418,0.10542472118381002,0.673914976822351,0.49267685736125766,0.1924624399556883,0.42918271269892305,0.4430301560627221,0.27688794558768354,0.6605493781395039,0.44613176922599984,0.20112874647137985,0.5997720470133865,0.42906467953108746,0.6506645331582825,0.21355459539660696,0.19881793377379686,0.26942314564671127,0.5950427381563848,0.20510161525709128,0.2699444020275114,0.4170746766428194,0.652066047620696,0.7671285288838673,0.6824953972773673,0.2254718971984856,0.4920700554390897,0.7029419760568733,0.47927383228823894,0.3986108060165216,0.3398010799025159,0.6204875464829718,0.6601800315993711,0.26293546891035785,0.12353782071100847,0.6457695769237449,0.4898191343268655,0.26170080460119066,0.6062878031214597,0,0.2968917241343304,0.04580774928202342,0.24769982867365928,0.43522937413309704,0.49339541554759453,0.05280280139775396,0.40387533515180796,0.07822944427954956,0.14118310863618388,0.10277864285520617,0.0679640562837909,0.3261015842342632,0.6209356087938847,0.4367285658080452,0.16734227062171464,0.21139690759354773,0.20119377756598364,0.207219601353638,0.5715827711008012,0.25460391651224634,0.22730308990353512,0.7685670586285336,0.2446826511754071,0.24896500142271638,0.442833050014249,0.30071681050483073,0.29608764055644,0.22896323830893572,0.5741652570866079,0.20431997387501818,0.6896066698759435,0.36820712393499744,0.596362193135844,0.5847227762564647,0.3669516767650325,0.5563373260712376,0.6082526915807017,0.6168046101504383,0.6229100212775447,0.39894894154985333,0.38364894487213735,0.49925232438658373],[0.29743757775304747,0.6872305844312905,0.42821518199746966,0.36275009562206967,0.7555816380836605,0.5918266337811161,0.40201494994331494,0.7675896717709213,0.20842875727239646,0.35512194149483184,0.9124107207026435,0.5203360357029972,0.3813013600046529,0.7186052284111453,0.2505114746401031,0.5620844068605233,0.8808933584746494,0.45645532025376356,0.5027903479071576,0.841142778907148,0.6243900822723281,0.882345327683047,0.40701502942935425,0.41285457291284805,0.18476088583585218,0.7702068310284212,0.3958144226672886,0.17994622902619786,0.7184597721065117,0.7376056705570114,0.8564398516256612,0.749386249524672,0.266896135689658,0.40731700835419155,0.7625848072376837,0.7686897868870839,0.6550869802779137,0.6415748026599617,0.8447440555392594,0.6131403721406002,0.5519688341219435,0.2481934684203226,0.693527883584502,0.48875215866602917,0.3382804690027085,0.653899605316796,0.2968917241343304,0,0.34578034181173045,0.5264043217413722,0.7287058637793441,0.4541734560103918,0.2487231398717846,0.19586328921363214,0.28158650725662693,0.19815198509242843,0.19013165683007005,0.24479437691273717,0.4938042151106971,0.6909290041916246,0.37951092111215234,0.3667321330871752,0.334693498296038,0.5006935720163194,0.42398772386108124,0.737690987552439,0.5411667474107427,0.42558757850152223,0.7701833336210671,0.2707448979857972,0.2589345462024375,0.6439172785890356,0.6001186669524751,0.229344920319824,0.43076773421632825,0.6248202053124537,0.23550536308915893,0.88508253833607,0.4180590732250647,0.8636435105470598,0.8200383551726426,0.6593369602539951,0.6410736657092417,0.6984054784000598,0.7880281453405316,0.45904662302162635,0.49791971182063505,0.23880849999548254,0.7962915898679948],[0.32076944986141326,0.3430768264659166,0.4809021627511252,0.0955418072691069,0.6829663632710217,0.6908720014874036,0.42403725682331284,0.4462765922895122,0.5089734761495388,0.0815533306226592,0.6517898704973357,0.5194057951327773,0.2056226595334963,0.39078023626256947,0.49211244881231947,0.22705173524531996,0.6437254403574574,0.47685344010875236,0.1546785040918541,0.5776417937720453,0.42386832001749886,0.6307804406202056,0.22254057842658367,0.2027080495104604,0.317430290980563,0.5907914633366443,0.21598248527334524,0.31822487956332096,0.37029737151368436,0.6653854448357229,0.7779446129711827,0.6985903188712701,0.2651694343620918,0.5326742362373955,0.7199448837946121,0.44045489855067826,0.3749341717271036,0.2924142588472025,0.6031047099333069,0.6935223423564034,0.2126018033052257,0.14637701912123618,0.6657399877239202,0.5207429435084479,0.2925976701308073,0.6270575944540162,0.04580774928202342,0.34578034181173045,0,0.21890282792451796,0.3945412444210794,0.5290636287138241,0.10291865139360948,0.4539090904286063,0.09349851826903516,0.1761599042099338,0.15069782799621642,0.10452385636492842,0.3328535393058195,0.637625983614407,0.4759591890573308,0.18102087657958688,0.21096196358010538,0.1507003461224295,0.20910563382005093,0.5699404639223189,0.22090490404137392,0.20328208900378184,0.7937947384499934,0.28451972323010605,0.2903518779328548,0.43561611904478653,0.25674015732266275,0.3415954042779505,0.23358975543989358,0.595139827193532,0.247561945481789,0.6788930946460668,0.39632659739262005,0.5657316949976251,0.5646304564170228,0.3275206467816792,0.5718425925068256,0.6215848148436022,0.6130814348330501,0.6684564382