"trial_id","rt","stimulus","response","trial_type","trial_index","plugin_version","time_elapsed","language","participant_number","success","raw_payload","placements","dissimilarity_vector","n_words","trial_category","distance_matrix","value"
"consent_form","2787","
    <div style=""max-width:800px; margin:0 auto; text-align:left; font-size: 16px; padding: 10px 0;"">
      <h1>Informed Consent Form</h1>
      <p>You are being invited to participate in a research study titled <strong>""Reproducibility of Psychological Science and Instruction.""</strong> This study is being done by Dr. Bria Long from UC San Diego and associated graduate students in the Experimental Methods course. You were selected to participate in this study because you are an adult in the U.S. and have been a represented population in previous psychology studies.</p>
      
      <p>The purpose of this study is to better understand how well previously published studies in the psychological field replicate online and with different populations. Your participation in this research should last approximately <strong>5-30 minutes</strong>. If you agree to take part in this study, you may be asked to view a set of stimuli, including pictures, sounds, written text, or videos and then giving some responses via key-presses, verbally, or with paper-and-pencil. We may also observe your choices or preferences among an array of stimuli. These stimuli will be taken directly from or closely adapted from studies that already exist in the published psychological literature. Stimuli will include, e.g., pictures of objects and human faces, audio and video clips, short text passages, etc. None of the stimuli will be disturbing, threatening, or offensive. The online and in-person experiments described in this protocol will take no more than 30 minutes. An example game you might play would be to click on an image on the screen that matches a word you hear being said out loud. Your total expected time commitment for this study is between 5-30 minutes, and is specified in the study description.</p>
      
      <p>Your participation in this study is completely voluntary and you can withdraw at any time. Choosing not to participate or withdrawing will result in no penalty or loss of benefits to which you are entitled. You are free to skip any question that you choose.</p>
      
      <p>We will not be asking for any personally identifying information, and we will handle responses as confidentially as possible. Your SONA or Prolific IDs will never be tied to your responses on this survey. However, we cannot guarantee the confidentiality of information transmitted over the Internet. To minimize this risk, data containing anything that might be personally identifying (e.g. Prolific IDs or IP addresses) will be encrypted on transfer and storage and will only be accessible to qualified lab personnel. We will be keeping data collected as part of this experiment indefinitely. This anonymized data (containing neither Prolific IDs nor IP addresses) may be shared with the scientific community or with other participants to be used as stimuli in future studies.</p>
      
      <p>If you have questions about this project or if you have a research-related problem, you may contact the researcher(s), <strong>Dr. Bria Long, <a href=""mailto:brlong@ucsd.edu"">brlong@ucsd.edu</a></strong>. If you have any questions concerning your rights as a research subject, you may contact the UC San Diego Office of IRB Administration at <a href=""mailto:irb@ucsd.edu"">irb@ucsd.edu</a> or 858-246-4777.</p>
      
      <h3 style=""margin-top: 25px;"">Consent Statement</h3>
      <p style=""font-weight: bold;"">By participating in this research you are indicating that you are at least 18 years old, have read this consent form, and agree to participate in this research study. Please keep this consent form for your records.</p>
    </div>
  ","0","html-button-response","0","2.1.0","2789","en","am1dzy3vj3_5ofsil","","","","","","","",""
"","4055","
    <div style=""display:flex; align-items:center; justify-content:center; height:100vh; font-family:sans-serif;"">
      <div style=""max-width:900px; margin:0 auto; text-align:center;"">
        <h1 style= ""font-size: 24px;"">Welcome! Thank you for participating in the study.</h1>
        <p style=""font-size:18px; line-height:1.6;"">
          In this task, you will be presented with <strong>90 words</strong> arranged <strong>outside a circle</strong>.<br>
          Your job is to <strong>drag these words into the circle</strong> and <strong>rearrange them</strong> based on their <strong>meaning similarity</strong>.<br><br>
          Words that are <strong>similar in meaning</strong> should be placed <strong>closer together</strong>.<br>
          Words that are <strong>different in meaning</strong> should be placed <strong>farther apart</strong>.<br><br>
          You can place the words <strong>anywhere inside the circle</strong>. There is no single correct answer — 
          we are interested in <strong>your personal judgment</strong> of how these words relate to each other.<br><br>
          <strong>You must move all words into the circle before you can finish.</strong><br>
          After the initial arrangement, you will arrange words from specific categories.
        </p>
        <p style=""font-size:16px; margin-top:30px;""><em>Press any key to continue.</em></p>
      </div>
    </div>
  "," ","html-keyboard-response","1","2.1.0","6847","en","am1dzy3vj3_5ofsil","","","","","","","",""
"","2788","<p style='font-size:20px;'>Which is your first language or primary language of use?</p>","1","html-button-response","2","2.1.0","9636","en","am1dzy3vj3_5ofsil","","","","","","","",""
"","2617","","","fullscreen","3","2.1.0","13256","en","am1dzy3vj3_5ofsil","true","{""placements"":[{""word"":""proud"",""x"":286.6,""y"":266.2,""cx"":309.5,""cy"":283.6,""angle_rad"":-2.118,""angle_deg"":238.6},{""word"":""refrigerator"",""x"":406.8,""y"":3.2,""cx"":446,""cy"":20.6,""angle_rad"":-1.287,""angle_deg"":286.2},{""word"":""rabbit"",""x"":634.5,""y"":196.2,""cx"":657,""cy"":213.6,""angle_rad"":-0.418,""angle_deg"":336},{""word"":""agreement"",""x"":324,""y"":225.2,""cx"":362.5,""cy"":242.6,""angle_rad"":-1.455,""angle_deg"":276.6},{""word"":""lips"",""x"":397,""y"":274.2,""cx"":412.5,""cy"":291.6,""angle_rad"":-0.751,""angle_deg"":316.9},{""word"":""scissors"",""x"":653.2,""y"":229.2,""cx"":683.5,""cy"":246.6,""angle_rad"":-0.301,""angle_deg"":342.8},{""word"":""giraffe"",""x"":659.2,""y"":261.2,""cx"":683.5,""cy"":278.6,""angle_rad"":-0.211,""angle_deg"":347.9},{""word"":""system"",""x"":658.3,""y"":282.2,""cx"":685.5,""cy"":299.6,""angle_rad"":-0.149,""angle_deg"":351.5},{""word"":""fault"",""x"":333.3,""y"":447.2,""cx"":351.5,""cy"":464.6,""angle_rad"":1.558,""angle_deg"":89.2},{""word"":""friendship"",""x"":258.2,""y"":322.2,""cx"":293.5,""cy"":339.6,""angle_rad"":-2.96,""angle_deg"":190.4},{""word"":""method"",""x"":472.2,""y"":330.2,""cx"":500.5,""cy"":347.6,""angle_rad"":-0.016,""angle_deg"":359.1},{""word"":""ant"",""x"":682.8,""y"":353.2,""cx"":697.5,""cy"":370.6,""angle_rad"":0.059,""angle_deg"":3.4},{""word"":""depressed"",""x"":402.8,""y"":459.2,""cx"":440.5,""cy"":476.6,""angle_rad"":0.95,""angle_deg"":54.4},{""word"":""sofa"",""x"":670.3,""y"":376.2,""cx"":688.5,""cy"":393.6,""angle_rad"":0.128,""angle_deg"":7.3},{""word"":""violence"",""x"":334.8,""y"":565.2,""cx"":365.5,""cy"":582.6,""angle_rad"":1.504,""angle_deg"":86.2},{""word"":""chopsticks"",""x"":648.8,""y"":403.2,""cx"":686.5,""cy"":420.6,""angle_rad"":0.207,""angle_deg"":11.8},{""word"":""concept"",""x"":537,""y"":342.2,""cx"":566.5,""cy"":359.6,""angle_rad"":0.044,""angle_deg"":2.5},{""word"":""sparrow"",""x"":645.6,""y"":425.2,""cx"":675.5,""cy"":442.6,""angle_rad"":0.277,""angle_deg"":15.9},{""word"":""chair"",""x"":647.3,""y"":458.2,""cx"":667.5,""cy"":475.6,""angle_rad"":0.377,""angle_deg"":21.6},{""word"":""business"",""x"":499.9,""y"":378.2,""cx"":532.5,""cy"":395.6,""angle_rad"":0.245,""angle_deg"":14},{""word"":""magic power"",""x"":605.8,""y"":498.2,""cx"":650.5,""cy"":515.6,""angle_rad"":0.504,""angle_deg"":28.9},{""word"":""result"",""x"":508.4,""y"":450.2,""cx"":530.5,""cy"":467.6,""angle_rad"":0.577,""angle_deg"":33.1},{""word"":""hostility"",""x"":441.2,""y"":513.2,""cx"":469.5,""cy"":530.6,""angle_rad"":0.986,""angle_deg"":56.5},{""word"":""dispute"",""x"":437.9,""y"":559.2,""cx"":465.5,""cy"":576.6,""angle_rad"":1.099,""angle_deg"":63},{""word"":""relationship"",""x"":185.7,""y"":360.2,""cx"":226.5,""cy"":377.6,""angle_rad"":2.922,""angle_deg"":167.4},{""word"":""pencil"",""x"":663.2,""y"":317.2,""cx"":686.5,""cy"":334.6,""angle_rad"":-0.046,""angle_deg"":357.4},{""word"":""anger"",""x"":345.6,""y"":506.2,""cx"":368.5,""cy"":523.6,""angle_rad"":1.465,""angle_deg"":83.9},{""word"":""team"",""x"":502.9,""y"":281.2,""cx"":523.5,""cy"":298.6,""angle_rad"":-0.288,""angle_deg"":343.5},{""word"":""washing machine"",""x"":-37.6,""y"":375.2,""cx"":21.5,""cy"":392.6,""angle_rad"":3.013,""angle_deg"":172.6},{""word"":""thigh"",""x"":-12.7,""y"":352.2,""cx"":7.5,""cy"":369.6,""angle_rad"":3.084,""angle_deg"":176.7},{""word"":""charity"",""x"":-8.1,""y"":270.2,""cx"":17.5,""cy"":287.6,""angle_rad"":-2.956,""angle_deg"":190.6},{""word"":""finger"",""x"":-12,""y"":284.2,""cx"":10.5,""cy"":301.6,""angle_rad"":-3,""angle_deg"":188.1},{""word"":""characteristic"",""x"":115.3,""y"":325.2,""cx"":161.5,""cy"":342.6,""angle_rad"":-3.102,""angle_deg"":182.2},{""word"":""cat"",""x"":-4.8,""y"":315.2,""cx"":9.5,""cy"":332.6,""angle_rad"":-3.091,""angle_deg"":182.9},{""word"":""eye"",""x"":284.2,""y"":-5.8,""cx"":300.5,""cy"":11.6,""angle_rad"":-1.716,""angle_deg"":261.7},{""word"":""bed"",""x"":2.8,""y"":240.2,""cx"":19.5,""cy"":257.6,""angle_rad"":-2.869,""angle_deg"":195.6},{""word"":""computer mouse"",""x"":-23.6,""y"":220.2,""cx"":33.5,""cy"":237.6,""angle_rad"":-2.8,""angle_deg"":199.6},{""word"":""microwave"",""x"":2.1,""y"":182.2,""cx"":40.5,""cy"":199.6,""angle_rad"":-2.689,""angle_deg"":205.9},{""word"":""reason"",""x"":282.1,""y"":366.2,""cx"":308.5,""cy"":383.6,""angle_rad"":2.461,""angle_deg"":141},{""word"":""hammer"",""x"":156.3,""y"":33.2,""cx"":187,""cy"":50.6,""angle_rad"":-2.069,""angle_deg"":241.4},{""word"":""spoon"",""x"":29.4,""y"":160.2,""cx"":53.5,""cy"":177.6,""angle_rad"":-2.615,""angle_deg"":210.2},{""word"":""fate"",""x"":342.8,""y"":372.2,""cx"":359.5,""cy"":389.6,""angle_rad"":1.335,""angle_deg"":76.5},{""word"":""arm"",""x"":121.9,""y"":60.2,""cx"":139,""cy"":77.6,""angle_rad"":-2.23,""angle_deg"":232.2},{""word"":""rat"",""x"":260.8,""y"":0.2,""cx"":274,""cy"":17.6,""angle_rad"":-1.796,""angle_deg"":257.1},{""word"":""excited"",""x"":223.3,""y"":266.2,""cx"":250.5,""cy"":283.6,""angle_rad"":-2.553,""angle_deg"":213.7},{""word"":""ear"",""x"":61.4,""y"":129.2,""cx"":76.5,""cy"":146.6,""angle_rad"":-2.502,""angle_deg"":216.6},{""word"":""society"",""x"":201.7,""y"":321.2,""cx"":228.5,""cy"":338.6,""angle_rad"":-3.048,""angle_deg"":185.4},{""word"":""toothbrush"",""x"":82.4,""y"":87.2,""cx"":120.5,""cy"":104.6,""angle_rad"":-2.323,""angle_deg"":226.9},{""word"":""process"",""x"":400,""y"":329.2,""cx"":429.5,""cy"":346.6,""angle_rad"":-0.043,""angle_deg"":357.6},{""word"":""splendor"",""x"":416.7,""y"":228.2,""cx"":448.5,""cy"":245.6,""angle_rad"":-0.814,""angle_deg"":313.3},{""word"":""air conditioner"",""x"":163.5,""y"":23.2,""cx"":212.5,""cy"":40.6,""angle_rad"":-1.989,""angle_deg"":246},{""word"":""tortoise"",""x"":68.6,""y"":114.2,""cx"":96.5,""cy"":131.6,""angle_rad"":-2.43,""angle_deg"":220.7},{""word"":""status"",""x"":251.8,""y"":228.2,""cx"":275.5,""cy"":245.6,""angle_rad"":-2.191,""angle_deg"":234.5},{""word"":""trauma"",""x"":250.7,""y"":546.2,""cx"":277.5,""cy"":563.6,""angle_rad"":1.898,""angle_deg"":108.7},{""word"":""death"",""x"":300,""y"":652.2,""cx"":322.5,""cy"":669.6,""angle_rad"":1.657,""angle_deg"":94.9},{""word"":""happy"",""x"":332.4,""y"":268.2,""cx"":356.5,""cy"":285.6,""angle_rad"":-1.47,""angle_deg"":275.8},{""word"":""identity"",""x"":325.8,""y"":321.2,""cx"":353,""cy"":338.6,""angle_rad"":-1.313,""angle_deg"":284.8},{""word"":""marriage"",""x"":321.9,""y"":134.2,""cx"":354.5,""cy"":151.6,""angle_rad"":-1.548,""angle_deg"":271.3},{""word"":""error"",""x"":262.7,""y"":445.2,""cx"":282.5,""cy"":462.6,""angle_rad"":2.111,""angle_deg"":120.9},{""word"":""ankle"",""x"":531.8,""y"":51.2,""cx"":553.5,""cy"":68.6,""angle_rad"":-0.945,""angle_deg"":305.9},{""word"":""tiger"",""x"":569.9,""y"":81.2,""cx"":588.5,""cy"":98.6,""angle_rad"":-0.812,""angle_deg"":313.5},{""word"":""apathy"",""x"":437.5,""y"":278.2,""cx"":463.5,""cy"":295.6,""angle_rad"":-0.447,""angle_deg"":334.4},{""word"":""disease"",""x"":366.4,""y"":650.2,""cx"":395.5,""cy"":667.6,""angle_rad"":1.428,""angle_deg"":81.8},{""word"":""broom"",""x"":217.2,""y"":1.2,""cx"":242,""cy"":18.6,""angle_rad"":-1.886,""angle_deg"":252},{""word"":""sad"",""x"":273.7,""y"":641.2,""cx"":290,""cy"":658.6,""angle_rad"":1.763,""angle_deg"":101},{""word"":""key"",""x"":43.1,""y"":510.2,""cx"":59,""cy"":527.6,""angle_rad"":2.594,""angle_deg"":148.6},{""word"":""heaven"",""x"":408,""y"":64.2,""cx"":436,""cy"":81.6,""angle_rad"":-1.261,""angle_deg"":287.8},{""word"":""obligation"",""x"":241,""y"":145.2,""cx"":276,""cy"":162.6,""angle_rad"":-1.947,""angle_deg"":248.5},{""word"":""data"",""x"":35.4,""y"":469.2,""cx"":54,""cy"":486.6,""angle_rad"":2.709,""angle_deg"":155.2},{""word"":""loving heart"",""x"":498.8,""y"":238.2,""cx"":540,""cy"":255.6,""angle_rad"":-0.461,""angle_deg"":333.6},{""word"":""content"",""x"":152,""y"":264.2,""cx"":180,""cy"":281.6,""angle_rad"":-2.759,""angle_deg"":201.9},{""word"":""phenomenon"",""x"":-12.9,""y"":435.2,""cx"":33,""cy"":452.6,""angle_rad"":2.829,""angle_deg"":162.1},{""word"":""cabinet"",""x"":340.4,""y"":-5.8,""cx"":368,""cy"":11.6,""angle_rad"":-1.518,""angle_deg"":273},{""word"":""miracle"",""x"":334.4,""y"":188.2,""cx"":362,""cy"":205.6,""angle_rad"":-1.488,""angle_deg"":274.8},{""word"":""fear"",""x"":585.9,""y"":383.2,""cx"":603,""cy"":400.6,""angle_rad"":0.197,""angle_deg"":11.3},{""word"":""knee"",""x"":14.8,""y"":404.2,""cx"":35,""cy"":421.6,""angle_rad"":2.918,""angle_deg"":167.2},{""word"":""comfortable"",""x"":398.4,""y"":190.2,""cx"":440,""cy"":207.6,""angle_rad"":-1.007,""angle_deg"":302.3},{""word"":""debt"",""x"":243.4,""y"":413.2,""cx"":262,""cy"":430.6,""angle_rad"":2.4,""angle_deg"":137.5},{""word"":""elephant"",""x"":599.1,""y"":535.2,""cx"":631,""cy"":552.6,""angle_rad"":0.625,""angle_deg"":35.8},{""word"":""effect"",""x"":289,""y"":416.2,""cx"":311,""cy"":433.6,""angle_rad"":2.007,""angle_deg"":115},{""word"":""discipline"",""x"":396.7,""y"":381.2,""cx"":430.5,""cy"":398.6,""angle_rad"":0.543,""angle_deg"":31.1},{""word"":""television"",""x"":565.8,""y"":101.2,""cx"":600,""cy"":118.6,""angle_rad"":-0.747,""angle_deg"":317.2},{""word"":""shoulder"",""x"":595.2,""y"":134.2,""cx"":627,""cy"":151.6,""angle_rad"":-0.622,""angle_deg"":324.4},{""word"":""nose"",""x"":617.8,""y"":163.2,""cx"":638,""cy"":180.6,""angle_rad"":-0.532,""angle_deg"":329.5},{""word"":""ax"",""x"":639.6,""y"":181.2,""cx"":652,""cy"":198.6,""angle_rad"":-0.465,""angle_deg"":333.4},{""word"":""scenery"",""x"":326,""y"":55.2,""cx"":355.5,""cy"":72.6,""angle_rad"":-1.551,""angle_deg"":271.1},{""word"":""panda"",""x"":316.5,""y"":-11.8,""cx"":341,""cy"":5.6,""angle_rad"":-1.597,""angle_deg"":268.5},{""word"":""fraud"",""x"":189.6,""y"":450.2,""cx"":210.5,""cy"":467.6,""angle_rad"":2.441,""angle_deg"":139.9},{""word"":""table"",""x"":480.8,""y"":31.2,""cx"":501,""cy"":48.6,""angle_rad"":-1.106,""angle_deg"":296.6}],""n_words"":89,""words"":[""proud"",""refrigerator"",""rabbit"",""agreement"",""lips"",""scissors"",""giraffe"",""system"",""fault"",""friendship"",""method"",""ant"",""depressed"",""sofa"",""violence"",""chopsticks"",""concept"",""sparrow"",""chair"",""business"",""magic power"",""result"",""hostility"",""dispute"",""relationship"",""pencil"",""anger"",""team"",""washing machine"",""thigh"",""charity"",""finger"",""characteristic"",""cat"",""eye"",""bed"",""computer mouse"",""microwave"",""reason"",""hammer"",""spoon"",""fate"",""arm"",""rat"",""excited"",""ear"",""society"",""toothbrush"",""process"",""splendor"",""air conditioner"",""tortoise"",""status"",""trauma"",""death"",""happy"",""identity"",""marriage"",""error"",""ankle"",""tiger"",""apathy"",""disease"",""broom"",""sad"",""key"",""heaven"",""obligation"",""data"",""loving heart"",""content"",""phenomenon"",""cabinet"",""miracle"",""fear"",""knee"",""comfortable"",""debt"",""elephant"",""effect"",""discipline"",""television"",""shoulder"",""nose"",""ax"",""scenery"",""panda"",""fraud"",""table""],""distance_matrix"":[[0,0.41591384299071354,0.5021129546083636,0.07610357143914244,0.1299010531468469,0.5337451137136711,0.5310890286701128,0.5345075782863866,0.252157059533388,0.06311226652513077,0.2753168153155173,0.5660633868011927,0.32247448171296444,0.561626673425046,0.42760048417862845,0.5712303328797683,0.373959592857222,0.5681541515178058,0.578810987094593,0.3466090117699602,0.588001049227491,0.402959121925181,0.4129223272859345,0.46871214937772115,0.16263522930866145,0.5405740684173422,0.34305259927159715,0.29471166727179243,0.4331394767251032,0.44213421964835825,0.40956331489991943,0.4206982832898067,0.2129125714858916,0.4272690988470777,0.38010506814651895,0.40828262951029687,0.3914538764802275,0.39442235880536064,0.1250030188931504,0.366902792929972,0.38740904218548994,0.1504855077242875,0.37307735144579585,0.3744879982448602,0.064237216886874,0.3773540139301507,0.12189562769960226,0.36256292830897113,0.17765132807832837,0.190348906367075,0.36453897699400606,0.3645814534027502,0.05236739081779047,0.3944407633109541,0.5491467621846019,0.04651730426675138,0.08072068136876047,0.18347137097133992,0.24506732335215667,0.4587357748317724,0.4728931308576978,0.20571065180382425,0.5599551448881059,0.3820504477793582,0.5332722359321587,0.4950209033800865,0.3300042329640731,0.16286110249514568,0.46039217188288073,0.32089611310024124,0.16873489928012075,0.45702908048426655,0.3891016535798029,0.11613763406908263,0.44503056751045034,0.43210182806272834,0.2005988825364812,0.20573583394298198,0.5980123976788991,0.1991023243506096,0.22418164566841606,0.47189444571999295,0.4863543110109247,0.4869810029706432,0.4997561247156366,0.29683221998199943,0.3914121668699953,0.28643892164907503,0.42603950330337476],[0.41591384299071354,0,0.4005638793921207,0.3282902278888861,0.3814593362717512,0.46264164016318665,0.4964681871181778,0.5216993452008302,0.6495112630009457,0.5007755758531387,0.4680738869642919,0.6154934438284292,0.652605438545062,0.636105797891401,0.8181393179794706,0.6684625324611188,0.5099658923857411,0.6886688063043472,0.7267269314375887,0.5471138718187557,0.7704858955758275,0.6509510067377577,0.7333814495260774,0.801254074754344,0.5978462234183306,0.5629305847669969,0.7310019048607638,0.40448496017261804,0.813243978024268,0.8073142958057795,0.7249883828207049,0.7448599057181668,0.613551237732042,0.7719109699788133,0.19283470338501738,0.6998670029139024,0.6675173031426831,0.6336630580585388,0.5520368609036493,0.36318579191545725,0.6032611319377774,0.538453460613225,0.43952654053619,0.23173204263278377,0.46243140712217207,0.5553316418530229,0.5477354134128416,0.4749699120148828,0.46052611839483115,0.3102551929195059,0.32409784768150635,0.5202263126335424,0.39515331432842377,0.8193352505951691,0.9558237796868296,0.39130356978820907,0.4677916257360209,0.21360101109476878,0.6751863996084687,0.15126926192955614,0.2175421437577749,0.3851545340699149,0.9385176392861795,0.2791289873200548,0.9501171801346368,0.9220017670514727,0.06840766975928085,0.30505377339152534,0.8792146050369021,0.3518804083106987,0.5290567705778317,0.86247839440755,0.09316045534949319,0.2778952345441691,0.5861009626317017,0.8277393981407136,0.25406456210197526,0.6427684790352496,0.8114892951796464,0.6207015735403382,0.5374378903121756,0.2473091704810046,0.30791144224084255,0.34717569879441057,0.38025478407094615,0.1314797510346387,0.133984913259982,0.725528263265716,0.06826371483254126],[0.5021129546083636,0.4005638793921207,0,0.4153383306980842,0.3571227707078934,0.03952360954611748,0.08082629273134034,0.11106473695506065,0.5627338478246768,0.5469232326868607,0.2821223416757558,0.21708102990159087,0.4816151856850932,0.24760228851725466,0.6736706773235193,0.2866595951087865,0.23135811631128525,0.31726784805716446,0.3653770263382813,0.30357944847646834,0.42444548486312406,0.3973078770193383,0.5225933275076742,0.5850047319585712,0.6594919369681109,0.16136790827764147,0.6043591535056139,0.21133659025165816,0.9552044812010883,0.9666797604921111,0.9308108053547777,0.9436952181219781,0.735568323302601,0.9524127731743081,0.5840200036558565,0.923770826054518,0.9014608040912642,0.890638702632879,0.5514199720539746,0.7140001549368765,0.8727280793583639,0.4890451471173653,0.7704509622823454,0.614379723211821,0.5880679662158976,0.8427651814317901,0.638270655836492,0.7880930405178267,0.3673247780297369,0.2894009180590872,0.6836457596624658,0.8162578609748781,0.5441391866776389,0.7418503665849034,0.8148728209731155,0.4347230138973543,0.46390282360087465,0.43440158582709754,0.643255105033124,0.2408063160641926,0.1751662333212955,0.288239597466626,0.7532163547955399,0.6563059107705633,0.8315915034828487,0.9777260041073496,0.3582780366412654,0.5464487652037565,0.9577115124957456,0.16102103306979149,0.6908230807278457,0.9670244038178045,0.4993228861196152,0.4141291727555613,0.2652447920133428,0.9487263197355678,0.2985022154124085,0.6446750430185852,0.48064795532492965,0.584417248960903,0.41019020395168354,0.14098260378793312,0.07887361940983566,0.033233936338958645,0.00023549428141590145,0.47004574938317,0.5374295663908681,0.7380489940013388,0.31330287121103506],[0.07610357143914244,0.3282902278888861,0.4153383306980842,0,0.08054883360210584,0.4525350958749515,0.45548034045245184,0.46285799476736944,0.3061924822200349,0.15320796759957897,0.23377410464292786,0.5082491321402257,0.3423293543079,0.5092152009071768,0.4806741063741175,0.5246310227342333,0.3253058806564956,0.5272484529017997,0.5455845565380237,0.3157348891209541,0.5648695945534872,0.3929262518452671,0.43209881345294415,0.4947639270924065,0.26077912085356075,0.47592504653605383,0.393316600236834,0.22941281841600847,0.5288658628250511,0.5355343706375936,0.49239480058571466,0.5057141483466974,0.3094961307806289,0.5166537888682284,0.33124170367319355,0.4855860469531529,0.4644097614423846,0.4582160197439279,0.20055349346911175,0.3622845901249547,0.44473675303658694,0.19469083417313607,0.3884913281650944,0.33510011929577205,0.15354998592647517,0.4238705170773846,0.22108177052249617,0.38963860530877936,0.16013674992410534,0.10432635963513512,0.34965771179463795,0.4039371089545606,0.1058073811675575,0.4688929235622468,0.6123511900854636,0.0411439694650674,0.11976284023758275,0.1121785103113267,0.3237111166653329,0.3596915877979085,0.37392364958506563,0.14583334783845497,0.6085127522412156,0.3537355093572346,0.602571916041826,0.5937805498360108,0.23907876299483083,0.15140766870129932,0.5596844109552207,0.2405483208052428,0.25335972401305346,0.5558324910841066,0.3192230997416714,0.03164015877902701,0.40323537308243257,0.5298917135328148,0.10282139956932337,0.2927133284736922,0.5845550265280313,0.2699581066729969,0.22899082888829092,0.3738413825455264,0.39131946382120364,0.39528190383941875,0.4107447103206467,0.2289429298188863,0.3294597713378237,0.3791892303184756,0.33004153672984754],[0.1299010531468469,0.3814593362717512,0.3571227707078934,0.08054883360210584,0,0.38390157950530374,0.3788643708276111,0.3815400548800949,0.24864540451801034,0.1669574540757633,0.13137855797981637,0.41507471922690653,0.2540804028238144,0.41284930670754794,0.41362923935402507,0.4255987155135824,0.2262767144456317,0.4262172854874842,0.44279681928357234,0.21212531693139958,0.4611425887040268,0.29081593426407715,0.34091474383160186,0.40639022797954794,0.2804770718657917,0.3878179884173078,0.3267365231443746,0.14162340581701852,0.5752510491005299,0.5880082352954871,0.5621896667000079,0.5727173270792416,0.35636486357069885,0.5770976813019638,0.4237034722041498,0.5613712711891353,0.5441212837514697,0.5446842297138977,0.18257150668057529,0.4659055343160582,0.5349897371127469,0.14190962524013936,0.49143182795201823,0.4317737213802344,0.2171666995888375,0.5191133445371237,0.2582311659089487,0.4906519235869613,0.06211415839213923,0.06336633789767912,0.45240582499282433,0.501694213082673,0.19096504950395501,0.42680084527641565,0.5526259162758957,0.060266450478076855,0.08916862147866417,0.20137153784361764,0.2951258698655979,0.3677877335061734,0.3638785782340945,0.052614021157399556,0.534572546417559,0.4537850183687217,0.5501631376943071,0.6066749807671971,0.28994840676675565,0.2551248833728021,0.5815756790787024,0.17313538026132608,0.3216674950625819,0.5877067970076685,0.396947372635565,0.12459680905399888,0.30205371305563683,0.568468335292159,0.10778606662285374,0.28040203392534474,0.48122786305897935,0.23546598440318645,0.13759698338335657,0.3548670003884152,0.35638872927079734,0.3492665654844272,0.35754117557032006,0.312155563585799,0.413675111345121,0.37383515997523065,0.36004774233060266],[0.5337451137136711,0.46264164016318665,0.03952360954611748,0.4525350958749515,0.38390157950530374,0,0.024225592471054855,0.0554016461088894,0.5653828488403413,0.5709550343138944,0.2865559247501202,0.16172897769104624,0.47263409806473433,0.19477145074279675,0.6623709260066967,0.23469542112092728,0.21785096097476447,0.2675010071311094,0.3169895687032937,0.29117240426434843,0.37842717079306787,0.3751328751323573,0.5037736542071571,0.5629076355265475,0.6813129236585801,0.10728842292040383,0.5984201317628541,0.226118213087765,0.9814052312018282,0.995024633240848,0.9656262324246652,0.9774561006491627,0.7633354051202901,0.983711007194416,0.6426992264620057,0.9609290005514036,0.9401395480815004,0.9322159666670033,0.568445600856211,0.7678293447278451,0.9159917958654021,0.5016293593122124,0.8216778509028551,0.6720900629455892,0.6208107028737736,0.8884501341632696,0.6647197134584151,0.8372492824568569,0.3813311030244583,0.3250568845874139,0.7386239403866758,0.8632231827306933,0.581426326327641,0.7401329573035116,0.8008993971721643,0.4648239325462935,0.485197969890617,0.48427218993034976,0.6517775094568741,0.3034441721649627,0.23742297864106932,0.3108137008276713,0.7327030184129227,0.7131614781256416,0.8210863074606112,0.9916288033204068,0.41761096295164124,0.5933799876089026,0.9751669489960875,0.1898766116829389,0.7247476583941805,0.987970487319021,0.5597917778877983,0.4570976704545755,0.23431726988782198,0.9722006934105359,0.3422489888631241,0.6583522415728839,0.43689513278360514,0.5944706869279647,0.41418942761751926,0.2032813419352396,0.14060261734425267,0.09560024661095116,0.061885389363636176,0.5270309755853289,0.5974182083610122,0.7504845435988894,0.3758496349873037],[0.5310890286701128,0.4964681871181778,0.08082629273134034,0.45548034045245184,0.3788643708276111,0.024225592471054855,0,0.008065376189695122,0.540749330574007,0.5617768579449419,0.2666309392312026,0.1147098375204684,0.4413146874028462,0.147385291090626,0.6287446474692658,0.18728287092653523,0.18768418470688658,0.22012696025945272,0.26970235905259715,0.25988451492410086,0.33140585739756423,0.33715592841450187,0.4667326783381056,0.5239651767158301,0.6697468466819848,0.05991047774012368,0.568178289719891,0.21575554054745408,0.972269911157308,0.9876128894393743,0.963847922392541,0.9747134400270514,0.7561548848317262,0.9788136575928642,0.6686811808734715,0.9612859740515414,0.9419615419787044,0.936838664338258,0.5538945114487744,0.7864442268776827,0.9223304697505567,0.4843392616378257,0.8369279590454912,0.6964268182148547,0.6185150895906986,0.8973485424047333,0.6569116171776769,0.8500580786325397,0.3664655570896559,0.3284705909547872,0.7588342451382438,0.8735485399812131,0.5833989850504233,0.7118999883745489,0.7654294750562489,0.46150065440247673,0.47458183041232144,0.49941744153571,0.6306232502318933,0.34280967638939697,0.2784199230732603,0.30379694946229846,0.6940636014074228,0.7360905582676256,0.7874553189816623,0.9731092414237258,0.4455789969483418,0.6046740202495913,0.9592732374918185,0.1921729300857173,0.722960352111605,0.9746785038627441,0.5893008023043262,0.4653664374195271,0.19340829454899486,0.9609114274184829,0.3526765727329844,0.6408039393946244,0.3902346217543345,0.5746989774942359,0.39176358805006745,0.24425668458639216,0.18279151076931016,0.13692121241268393,0.10421652807798089,0.5507847251257605,0.6258670683516074,0.731634589402753,0.4119071258264032],[0.5345075782863866,0.5216993452008302,0.11106473695506065,0.46285799476736944,0.3815400548800949,0.0554016461088894,0.008065376189695122,0,0.5288658628250511,0.5607303964440147,0.26003575054843325,0.08351236364650427,0.42470970994146007,0.11617506196674457,0.6098584192664133,0.15612188534052848,0.17429941772554178,0.18923534531157457,0.2389814070255848,0.24447316334167754,0.30107235752509454,0.3155404516085988,0.4454659651958721,0.5010097063386967,0.6667534236195226,0.028692494370224884,0.5520172948736607,0.21687872823209475,0.970398510647585,0.9868815513914396,0.966881348425268,0.9770994092144909,0.7559364737876515,0.9797698607758599,0.6893082597750297,0.9657183950109507,0.9473696694049777,0.9440571329122315,0.5491851306470842,0.8025675504390426,0.9306631821829002,0.47797995308153013,0.8509393876268108,0.716063535779699,0.6218720441622283,0.9073342396125904,0.6564997955479899,0.8625490584510526,0.3625145360964831,0.33701878225522963,0.7759521699172455,0.8844619079130782,0.5896355004246423,0.696958759741259,0.744928167295284,0.4647946819978673,0.4729180307295328,0.5141175861154377,0.6210152705470418,0.3710737767174484,0.30753981439457867,0.3058422732984374,0.671130399578862,0.754848085531971,0.7683469413529759,0.9647922146024408,0.46779442119699516,0.6167077610033402,0.9527998628799021,0.20206600215091725,0.7263856967395417,0.9699787561422358,0.6120422893628623,0.47603118198459465,0.1700632919188365,0.9575953674256125,0.36532050606781785,0.6337332632134252,0.3603284196401083,0.5662371242562421,0.38217168169880894,0.27345065919352024,0.21263919370905487,0.1666815232958725,0.13449579287795627,0.5703633574889065,0.6479588259285506,0.7234425081890206,0.4384414083179092],[0.252157059533388,0.6495112630009457,0.5627338478246768,0.3061924822200349,0.24864540451801034,0.5653828488403413,0.540749330574007,0.5288658628250511,0,0.18101274402491666,0.2575475450549042,0.508131349922642,0.10988802785875026,0.4871719801151665,0.15289646539710783,0.4775086853885507,0.33138108434671526,0.4580494882935363,0.44537223944429394,0.2638596016134595,0.4262954629439905,0.24210391089053937,0.17716417361742134,0.21363230894067142,0.20249333184667626,0.5093141857869162,0.0677942884300522,0.33104027921400525,0.47733979788482234,0.5056643213194911,0.5369691099973496,0.5369004989978162,0.3114147594010424,0.5200580726653877,0.6523515181318078,0.5565957372404744,0.5557997783696494,0.5822992226199493,0.11270470853669831,0.6369729256157971,0.5899167384649209,0.08857830326010009,0.631073597566933,0.6491014412350966,0.28396441207595646,0.5998228493724526,0.23774298346902806,0.6106765741509962,0.1864203256313317,0.33175249856485123,0.6380378003510653,0.5983494711292671,0.3203300246762893,0.1599689728731912,0.28362104059136267,0.2421701240326229,0.16353855280723711,0.44066417375367756,0.07909928199408181,0.6355805564618376,0.6229673285846246,0.2772527042210211,0.28461790295015216,0.6573655432086191,0.2783953486898105,0.4202038993070509,0.5580261886255624,0.43811543041459733,0.4188770435113673,0.3938863003826998,0.34846974360208954,0.4491282666004998,0.6485557130086264,0.36093489742700446,0.36138341787075273,0.45013844956528315,0.37960447733677355,0.11868345682991026,0.41104319189458166,0.05238555281368774,0.12935499616804927,0.6080854465615431,0.5947266241636423,0.5746200029054704,0.5715225825784638,0.557744160330454,0.6571799744969111,0.18580129186272243,0.6318803416336699],[0.06311226652513077,0.5007755758531387,0.5469232326868607,0.15320796759957897,0.1669574540757633,0.5709550343138944,0.5617768579449419,0.5607303964440147,0.18101274402491666,0,0.283789197535412,0.5772567970133505,0.2745839249924903,0.5676042763522768,0.35238359922753365,0.5714371848042681,0.38245058522566544,0.5631118053677617,0.5665458127463034,0.3405738150635954,0.5666444844807972,0.3759672505643574,0.36169379043147354,0.4107617900144991,0.0909501178954292,0.5592429627295843,0.27125775240423616,0.32301724235418766,0.3874651961722417,0.4029565453141657,0.3930080443188629,0.39994932716019393,0.17246730721688278,0.3977952419428197,0.4629822280274008,0.4006416072772317,0.3906905221705631,0.40530254085294204,0.04569339564260134,0.4332315044420921,0.40590430862391985,0.09950815464410598,0.42754506720411883,0.45485427157661223,0.08143411293157764,0.40716655776083693,0.0731400876280373,0.4092434991276778,0.17861122758713163,0.2454395388119781,0.43586716932021996,0.4013482770531007,0.11863507852562537,0.3095984289297658,0.4677200565151777,0.09976739134828225,0.06499062505745473,0.26970235905259715,0.15980704218381447,0.5333427739584451,0.5413059135589273,0.23703085839161933,0.4858320176078522,0.45858138861769,0.44956279367459145,0.4222027960049053,0.41357959163438657,0.24038173823340836,0.39324343778412457,0.3627230063431779,0.16569006680518214,0.39759762381372865,0.475251963398487,0.19982231948720341,0.44427953698452033,0.378690230938038,0.2690314831145683,0.11950914955238409,0.5682251707204086,0.11849759407320119,0.19785283406605833,0.5367696247152992,0.5441391866776389,0.5390748112809371,0.5476834838424615,0.38300241143543706,0.4767433006126518,0.2028773593708879,0.50644492448577],[0.2753168153155173,0.4680738869642919,0.2821223416757558,0.23377410464292786,0.13137855797981637,0.2865559247501202,0.2666309392312026,0.26003575054843325,0.2575475450549042,0.283789197535412,0,0.2707240143385434,0.18763731732621472,0.2636223437375423,0.37842717079306787,0.2729088221870643,0.0762140880715232,0.27188728909483245,0.2886157403581747,0.062294164094287174,0.3105604728545658,0.16010680099930436,0.25185781729513357,0.3201030080905278,0.3852748466984049,0.25311245688667133,0.3028250513663885,0.05701952649506628,0.6897658161919064,0.7081140992134342,0.6980694219998592,0.7061339968692609,0.47922722100106807,0.7047626703123395,0.5562604307249907,0.7019743846437243,0.68779638885306,0.6928976605977609,0.26628976603318466,0.6167626685201684,0.6855070418809543,0.19482685734289,0.6454444394993938,0.5699437417007271,0.35922959842941254,0.6721623099939963,0.38010506814651895,0.6452255823349172,0.08203059655428628,0.14646877284595253,0.6006048811966969,0.6556948117985775,0.3428966673038686,0.43687782993779106,0.5220352638117823,0.20913872309707443,0.1957929501015059,0.3389856448472996,0.342055889338897,0.3976517660607352,0.3681666818061722,0.07138012103775587,0.4758920464607404,0.5968447008155825,0.5333235372015831,0.6833552077289612,0.3824160711603741,0.4078988281762314,0.6697995323902407,0.12517518254994028,0.46172317902061355,0.6868571802744273,0.5120439696442609,0.270754833262117,0.1478047904590904,0.6752964484904438,0.20281542440290426,0.35103120646679975,0.33692808472683544,0.28519257714377777,0.10515030866710823,0.34681160561149005,0.3225006870981436,0.2973747239164104,0.2917002505217352,0.43750985655383395,0.5360259526226459,0.44189819132393127,0.419896720111046],[0.5660633868011927,0.6154934438284292,0.21708102990159087,0.5082491321402257,0.41507471922690653,0.16172897769104624,0.1147098375204684,0.08351236364650427,0.508131349922642,0.5772567970133505,0.2707240143385434,0,0.3887786135603882,0.013404934819348544,0.5605498473064446,0.052671935308840116,0.17161807431620907,0.08837181513118525,0.13863164275366716,0.22411061638328517,0.20268785776097278,0.26300148348978725,0.38957476661393153,0.43657940261246053,0.6748620475711273,0.032588111554708664,0.5144955117691181,0.2558606779856516,0.9791072969577113,0.9993247724534452,0.9919833641738482,1,0.77219229625523,0.997913836373073,0.7699942668996214,0.9953998414722643,0.9803389875422215,0.9828578748009327,0.553589998478046,0.8696613164536187,0.9730913320716409,0.47848142109253256,0.9114331110742412,0.793822230214948,0.6516489817322242,0.9551099251639873,0.6734370450105832,0.9183551402950929,0.3755461504990815,0.3896864778523576,0.8461261298168666,0.9352727480385012,0.6290292239366876,0.6617764593690445,0.6875446126685432,0.4975989780544469,0.489520802166046,0.5798715933682446,0.6067285838990777,0.47261416685988644,0.41104508836707615,0.34094791453943524,0.6045004257599798,0.8298816398702669,0.716277390001014,0.951189730929133,0.554376170216015,0.6733444371685083,0.9457847933288479,0.2658009985955788,0.7549525126856388,0.9690042639311295,0.6989248667646065,0.5308596817710788,0.12373245323188398,0.9614758423671845,0.42842362889593,0.6282733076054076,0.2639523467242321,0.5571224587736812,0.37464465802235364,0.377223094866614,0.3177448300275197,0.2718510061820839,0.2404608780783468,0.6490242655685676,0.7328951026823296,0.7126718396557429,0.5358138543801457],[0.32247448171296444,0.652605438545062,0.4816151856850932,0.3423293543079,0.2540804028238144,0.47263409806473433,0.4413146874028462,0.42470970994146007,0.10988802785875026,0.2745839249924903,0.18763731732621472,0.3887786135603882,0,0.3643548587591048,0.16923055478744267,0.35068114724914795,0.23161141168960123,0.32867972749514995,0.3132016995817392,0.15845200609439122,0.29332707734487856,0.11084169090422762,0.06763727385154063,0.12955640216245898,0.3262246806007061,0.3977300316953732,0.10422299137849142,0.26785207871042976,0.6100803962332696,0.6377737152359021,0.6633792185204979,0.6647771732748414,0.43547233624377124,0.6502139913872921,0.6964477982654355,0.6800524649135107,0.6762449013933809,0.6978258017913392,0.2160907560453028,0.7114177300147267,0.7015336268314575,0.1529588099051397,0.7179134072994234,0.7003709973012925,0.3781509430643861,0.7048984111058628,0.351666640552066,0.7039748740306757,0.17014139898425273,0.3193313085316152,0.7059292152875489,0.6987876226668518,0.39748475070754685,0.2506094595236292,0.3120343935525227,0.28601308261336056,0.2189519601584917,0.4750024221699848,0.21186386992381548,0.6041854718933092,0.5783730791424226,0.24718736720465911,0.2675991988579944,0.7165238396794792,0.3267812345332988,0.5471831793416442,0.5621976385484628,0.5021129546083636,0.5497550790446646,0.33596941003636194,0.45901878272516894,0.5817299866424978,0.6742187950912754,0.3949117741272078,0.24265070869830235,0.5832220163583811,0.3754394287412536,0.24996806799207924,0.2807454293734279,0.17901481852834958,0.09333961708290375,0.5576009679491403,0.5320909986153284,0.5041282802185497,0.4944484932692795,0.5886043847000051,0.6901896026688094,0.31790501708412394,0.6173680547402155],[0.561626673425046,0.636105797891401,0.24760228851725466,0.5092152009071768,0.41284930670754794,0.19477145074279675,0.147385291090626,0.11617506196674457,0.4871719801151665,0.5676042763522768,0.2636223437375423,0.013404934819348544,0.3643548587591048,0,0.5313841174479611,0.016925653488287392,0.16448726300521505,0.05193018570445412,0.1022428111140029,0.20800168047210943,0.16616470022251315,0.2353545277985119,0.3596141502305522,0.40429942450772277,0.6618582090849982,0.06428743676976771,0.48865432964639777,0.258952049781865,0.9652408331284542,0.9866130076792361,0.9834983372422015,0.9907484917258595,0.76142049425991,0.9870750325631463,0.783688830382552,0.9884815485576223,0.97460670207869,0.9791949338284724,0.5401259285068819,0.8771818195422799,0.9707697585321149,0.46438949404825186,0.9161615965647849,0.8061275085064518,0.646038236787683,0.9548135716702916,0.6633392351287659,0.9212196223045548,0.36688801518320496,0.39465104294531034,0.8549982717711275,0.9361727754940156,0.6269450669208985,0.6359154930908956,0.6561152034444256,0.4941763766126587,0.4806223477740005,0.5880279965468476,0.587087730835665,0.4983237556241533,0.438402755088864,0.34048928773134735,0.5712802055528888,0.8408839734501775,0.6859999525361933,0.9305690712777714,0.5716038144856468,0.6774170056889853,0.9271240342706679,0.2772207243826637,0.7484185766829706,0.9521246067108762,0.7157485822125589,0.5351259453015633,0.10393181754047781,0.9461224228908828,0.4367901123976112,0.6112137802789478,0.2273626014695897,0.5393579037431132,0.35920949927419255,0.4049135030501155,0.34682644329035206,0.30120185328498034,0.2707959201346413,0.6622267631372596,0.7486803701500309,0.693596533546147,0.558690799426582],[0.42760048417862845,0.8181393179794706,0.6736706773235193,0.4806741063741175,0.41362923935402507,0.6623709260066967,0.6287446474692658,0.6098584192664133,0.15289646539710783,0.35238359922753365,0.37842717079306787,0.5605498473064446,0.16923055478744267,0.5313841174479611,0,0.509644002581783,0.4216989776728849,0.48087237434259733,0.4516017098505623,0.34834194574537286,0.410663098058466,0.27484929940431396,0.1491145201399367,0.1252621140424845,0.3438462235515117,0.5779293723271205,0.06435017111185035,0.45841441352536133,0.5591713195197714,0.5941288275481181,0.6528698206451355,0.6477456986286473,0.4435855221777364,0.6214548712238332,0.8284410769135583,0.6802694621003383,0.6863432000398121,0.7211816615543628,0.2835637746429168,0.8083752784072658,0.7344209654208613,0.2629516029836851,0.7969958535775096,0.8249932266696697,0.4515392646701198,0.7519690552931061,0.391488300299679,0.772784309696685,0.33916750230944415,0.4911324973551159,0.8113893108596658,0.7550015462771804,0.49371137841215634,0.11021764723640247,0.12061860553550237,0.4171343090937872,0.33886511397510954,0.6157164705644925,0.19302649269704694,0.7878585229020514,0.7665189221706421,0.4262246152017282,0.11038215190956815,0.8324058524249935,0.13555758288968217,0.43826536126055715,0.7265570657647639,0.6131821006043566,0.4598446487055896,0.5260707534855864,0.5007630021293971,0.5058620446882236,0.8229842790222219,0.5355093134222945,0.42021628110158704,0.5215985796153281,0.5433819317138123,0.2493161011407378,0.37275579690213245,0.21191641609646447,0.26598996006151715,0.7472365548102239,0.7238751170073501,0.696501580692294,0.6867906815969499,0.7327248073625965,0.832638106299615,0.2628172660751018,0.7932239531380156],[0.5712303328797683,0.6684625324611188,0.2866595951087865,0.5246310227342333,0.4255987155135824,0.23469542112092728,0.18728287092653523,0.15612188534052848,0.4775086853885507,0.5714371848042681,0.2729088221870643,0.052671935308840116,0.35068114724914795,0.016925653488287392,0.509644002581783,0,0.17629090284640608,0.01325462401243882,0.06303589913791886,0.20800642975103054,0.12735529142949525,0.21824694402308673,0.33733566322636355,0.3776800973778047,0.6614557780508113,0.1042488413026932,0.4721555278068409,0.27852183988470663,0.9631490595297666,0.9858570052650322,0.9876052853775498,0.9939802226413352,0.7633479694128629,0.9884989141323546,0.8102096440256472,0.9943266800831789,0.9817745982776045,0.9885900785098078,0.5396442678629305,0.8979772352807495,0.9815997668821903,0.4635623159321336,0.9342219333764669,0.8314004027248941,0.6540641400865369,0.9677770448799005,0.6663124461272164,0.9374355121937435,0.37312930236394687,0.4145808820690589,0.877090045705151,0.9503890235505715,0.6387829813288268,0.6188845809717269,0.6303544889747045,0.505174105272727,0.485741950045775,0.6100249092866704,0.5787234309910928,0.5344307880089226,0.47559054473898515,0.3556467442748193,0.5424407317094463,0.8649436544521116,0.6621086070673451,0.9201263819821951,0.60144614339399,0.6953013910760057,0.9192028738641714,0.30379107295949925,0.7551443963238381,0.9463942538446867,0.7450057136638712,0.5536571002981805,0.10404405228724854,0.9422712233188884,0.4595786147923917,0.6060505822472867,0.1890039115289363,0.5335957494303677,0.3575721769347202,0.44233769796059186,0.3850738577077601,0.33965276647599146,0.3097378007945634,0.6885311272755288,0.7770303785994872,0.6856247830419584,0.5928134154549861],[0.373959592857222,0.5099658923857411,0.23135811631128525,0.3253058806564956,0.2262767144456317,0.21785096097476447,0.18768418470688658,0.17429941772554178,0.33138108434671526,0.38245058522566544,0.0762140880715232,0.17161807431620907,0.23161141168960123,0.16448726300521505,0.4216989776728849,0.17629090284640608,0,0.17983176245410426,0.20473480882111986,0.050185243479375134,0.23936643235693653,0.14550822936115568,0.26814243073991134,0.33150493229892664,0.4813600866464025,0.15845200609439122,0.35780280552579746,0.08740310662851779,0.7859256542578976,0.8053257642539733,0.7973408439331172,0.8052184087556582,0.5775072730948483,0.8031985926510837,0.6259089370455411,0.8013829198034622,0.7870905361381139,0.7915541893888075,0.3607883720757673,0.7020353274802149,0.7834506501780021,0.2867650020422957,0.735740512483553,0.6436981570953646,0.4584417717715351,0.7685796107641589,0.47865648832163077,0.7381395002448589,0.18073833180324164,0.21994638691192384,0.6829739684404126,0.7509300541788441,0.4399511096566668,0.501026463346904,0.5614294976930834,0.30676202686826604,0.294719438534812,0.41692978174379974,0.4244914749123427,0.4084709046337594,0.3649550453645336,0.15650724510253902,0.49886036866681716,0.6743762205354774,0.58031432709542,0.7690111337918626,0.43190885277951857,0.49695183114565333,0.7592557062650561,0.13584781463114498,0.5611105895237186,0.7793268101675901,0.5705062459643273,0.35617460750997526,0.058151119662542904,0.7697813985494875,0.2698569584729232,0.44015080712471844,0.2783625797300556,0.3709937004614313,0.18646746505444553,0.33737906032043175,0.2978162763199846,0.26244559177369037,0.2469486767047463,0.5046855140637311,0.598794940442368,0.5281075458617718,0.44778964242993896],[0.5681541515178058,0.6886688063043472,0.31726784805716446,0.5272484529017997,0.4262172854874842,0.2675010071311094,0.22012696025945272,0.18923534531157457,0.4580494882935363,0.5631118053677617,0.27188728909483245,0.08837181513118525,0.32867972749514995,0.05193018570445412,0.48087237434259733,0.01325462401243882,0.17983176245410426,0,0.027123995558631746,0.19987031857470106,0.09115195023494209,0.1948520375069013,0.30876593052158324,0.34596412851463565,0.6491189984830132,0.13767890895358653,0.4473202242354805,0.2870872009682618,0.9488031398977179,0.972615100734574,0.9785911794417687,0.9841841730039067,0.7527887834987559,0.9771290468856343,0.8234237383601157,0.9868565483114397,0.975517459089234,0.9843672743068681,0.5276492639034895,0.9049786192736242,0.9787226995898298,0.45162946062804893,0.9384011742083355,0.8432190037656886,0.6492496426727183,0.9669356897297035,0.6569116171776769,0.9397838576201807,0.3681302064555335,0.42221204070789153,0.8854630223848118,0.950773535434351,0.6375593799467562,0.5932602134868338,0.5987450672770233,0.503686132671529,0.47895669585725065,0.6188708998975544,0.5599494960728372,0.5597818896549784,0.5026326497920222,0.3591061154987477,0.5091079465158932,0.8754081044952764,0.631645633011865,0.8990458332406736,0.6188012074011838,0.699759175378231,0.9001179513818641,0.31902422702625155,0.74888092354703,0.9290481947821421,0.7614026510593039,0.5592000721298098,0.1009692694727632,0.9264790832429038,0.4698275379379191,0.5898330075061977,0.15264842741865095,0.5171259693937283,0.34568145153134294,0.4698074932690383,0.4139891736814229,0.369022176155688,0.3400640890090718,0.7017305620645549,0.7923398518324251,0.6668886851199476,0.6153799668141795],[0.578810987094593,0.7267269314375887,0.3653770263382813,0.5455845565380237,0.44279681928357234,0.3169895687032937,0.26970235905259715,0.2389814070255848,0.44537223944429394,0.5665458127463034,0.2886157403581747,0.13863164275366716,0.3132016995817392,0.1022428111140029,0.4516017098505623,0.06303589913791886,0.20473480882111986,0.027123995558631746,0,0.20935129965108168,0.04121219807542306,0.18017219954911717,0.28133282007804905,0.3114836642923123,0.6462695396596165,0.18764252532743453,0.425569355046826,0.3149434793994716,0.9419888457046798,0.9674002416019021,0.9795278840839946,0.9839868658974078,0.7521220237169067,0.9746639238418877,0.853496592577723,0.9899684812888759,0.9803553998710175,0.9920006698478092,0.5260022804628874,0.9274313300320335,0.9882025731550306,0.45069197377758796,0.9572392900735761,0.8716219178167253,0.6571182415119882,0.9791752162005866,0.6583067268969273,0.9562686586090465,0.3779758092264923,0.4474392266779493,0.909644186008409,0.9646707886852476,0.6503232297367608,0.5692801708240237,0.5633514737163718,0.5168815442542533,0.48516557176402036,0.6443971359679773,0.5476656920699094,0.6031555189256282,0.5476195270469945,0.3799716380383252,0.4701898718546292,0.9021386194781384,0.5984929921296236,0.8818344765818049,0.6540045552109588,0.7195975614340231,0.8861035557059899,0.35361896801795817,0.7543384492641587,0.9176951342365559,0.7952120370278174,0.5809998550872767,0.12339577074253916,0.9175235676988003,0.4977555015705746,0.5814086194522432,0.10308252986128373,0.5087597364327048,0.3460890325184557,0.515220487377111,0.4606804514309067,0.41614883534677305,0.38793618624755416,0.7320752269203226,0.824870234519512,0.654141957336039,0.655984667358454],[0.3466090117699602,0.5471138718187557,0.30357944847646834,0.3157348891209541,0.21212531693139958,0.29117240426434843,0.25988451492410086,0.24447316334167754,0.2638596016134595,0.3405738150635954,0.062294164094287174,0.22411061638328517,0.15845200609439122,0.20800168047210943,0.34834194574537286,0.20800642975103054,0.050185243479375134,0.19987031857470106,0.20935129965108168,0,0.22620628183370642,0.08354322937216593,0.19757448551481172,0.2628172660751018,0.431053348848445,0.2222700605760037,0.28509909852887355,0.12116728399205211,0.7340744978413593,0.7557617008595564,0.7565901152768321,0.762804729505617,0.5321755266404151,0.7574471891585898,0.641652966073365,0.7640512497615782,0.7524618455419008,0.7616303838067502,0.30922868702579853,0.7003588569859313,0.756697125031035,0.23332932768179868,0.7265497431033406,0.6554266761955418,0.4264566610214501,0.7467386375018203,0.4351562248985737,0.7242891135755409,0.14583334783845495,0.23157262532759693,0.685066888521838,0.732131923967879,0.41777969321627606,0.4293314230075036,0.4883882529853385,0.2843716678167143,0.2558970725454895,0.4243810908551491,0.36035633293445946,0.4623878797732846,0.4246876460635369,0.15684909468384686,0.4281263019447154,0.6821061830090479,0.5069381078814379,0.7052455661695736,0.463603482658381,0.4903275493296394,0.6986085198034523,0.18456958238296112,0.525816810641312,0.721823422607156,0.5958752586566722,0.3551137908300539,0.08154162584582385,0.7150617556738506,0.2873003410188797,0.3810032110084239,0.2514633177804425,0.30984332173348383,0.12802479788754165,0.3993059440303629,0.36456233959462647,0.3317068665194083,0.3182533051445955,0.5226189776694309,0.6206644824073343,0.465763517501899,0.4931423013732946],[0.588001049227491,0.7704858955758275,0.42444548486312406,0.5648695945534872,0.4611425887040268,0.37842717079306787,0.33140585739756423,0.30107235752509454,0.4262954629439905,0.5666444844807972,0.3105604728545658,0.20268785776097278,0.29332707734487856,0.16616470022251315,0.410663098058466,0.12735529142949525,0.23936643235693653,0.09115195023494209,0.04121219807542306,0.22620628183370642,0,0.1683325783607682,0.24594998461053982,0.2654769127285579,0.6375776593107602,0.2502844349104471,0.3948717227301838,0.34940436064834396,0.9265816921085475,0.953928466860822,0.9738493049692458,0.9768436105936412,0.7454726131973043,0.964663008026148,0.8861189519422552,0.9870348176175386,0.9796691354909625,0.9948639414603684,0.5200580726653877,0.94975300530395,0.9934576149944669,0.44672943322504033,0.9747335208907685,0.9019689154748691,0.6620569324174207,0.9880255955617935,0.6549520227205785,0.9707034744374071,0.38909033480808536,0.4765054911517774,0.9342950434259334,0.9757186375439947,0.6615776546424731,0.5341156402270627,0.5137802928821775,0.5299686376744926,0.48980127458752803,0.6720596616702663,0.52777483121551,0.654636212375579,0.601554681709369,0.4046870959944444,0.41673264716934255,0.9301718036591964,0.5515288829066128,0.853535731425442,0.6942185853958929,0.7394626917263821,0.8618089758273788,0.3954550436099736,0.7555153312899983,0.8966352656017688,0.8330139417410389,0.6043591535056139,0.16118934159843976,0.8994969648090574,0.5296474705099035,0.5661458369657291,0.038783949683658565,0.4943806101105565,0.34606227093150954,0.569864133883006,0.5173433691042258,0.47359040808161884,0.44657577598229325,0.7655297169266304,0.8608618093249633,0.632714134482566,0.7034541130654594],[0.402959121925181,0.6509510067377577,0.3973078770193383,0.3929262518452671,0.29081593426407715,0.3751328751323573,0.33715592841450187,0.3155404516085988,0.24210391089053937,0.3759672505643574,0.16010680099930436,0.26300148348978725,0.11084169090422762,0.2353545277985119,0.27484929940431396,0.21824694402308673,0.14550822936115568,0.1948520375069013,0.18017219954911717,0.08354322937216593,0.1683325783607682,0,0.10675719237503282,0.16487299717826615,0.44663362243933435,0.28059637113537783,0.23081294611112385,0.2274622799151397,0.739242019249473,0.7653333979725954,0.7824645163879288,0.7857112092799517,0.554153221194082,0.7743787613064125,0.733648081674604,0.795513521458454,0.7883579334240602,0.8044545902826531,0.32855176318229906,0.7774227178725581,0.8040631254410531,0.25532897295512297,0.7957163489449064,0.7443894148723884,0.4733134944814332,0.8007754738142587,0.4634607940564345,0.7883038116346346,0.2103736751041651,0.32751384455437405,0.7657788741635295,0.7901729822235602,0.47783314046146486,0.37781155178767756,0.40647712400256863,0.3499403191903029,0.3019726797023063,0.5128224518729925,0.34439327335481495,0.5690688576562999,0.530343675749092,0.25034866791140503,0.33438765851630514,0.7676974630455385,0.4319257413833329,0.681160556163393,0.5657152919979487,0.5654709902086846,0.6834966142332192,0.29128502761613195,0.564819645000724,0.714390665248338,0.6941818514781971,0.4384295153613856,0.12309584692201003,0.7142492268682226,0.38477521644971746,0.37845792697472047,0.17186169270856383,0.3059632208729393,0.15684909468384686,0.5041470203314492,0.46643731002669464,0.43096934176855334,0.4142151589353604,0.6170349916527831,0.7168028522482435,0.4510162529064596,0.5992625826604251],[0.4129223272859345,0.7333814495260774,0.5225933275076742,0.43209881345294415,0.34091474383160186,0.5037736542071571,0.4667326783381056,0.4454659651958721,0.17716417361742134,0.36169379043147354,0.25185781729513357,0.38957476661393153,0.06763727385154063,0.3596141502305522,0.1491145201399367,0.33733566322636355,0.26814243073991134,0.30876593052158324,0.28133282007804905,0.19757448551481172,0.24594998461053982,0.10675719237503282,0,0.04522959915809901,0.4023428681781227,0.41013382740976134,0.12683656459552933,0.3297982141301413,0.6714845507589144,0.7018290096213605,0.7372909874406551,0.7369573839891899,0.5115426616412915,0.7189509165445973,0.7856650554587808,0.7567872271211747,0.7552597153827013,0.7797792232285312,0.29988161997657004,0.8021725298911154,0.7853161016442889,0.24181817721153342,0.8077848363194415,0.7903582459305913,0.46599252029777627,0.7910540422142229,0.43342812895073946,0.7929021138892282,0.2558449383274419,0.4002943122710662,0.7967571865972327,0.7862187276174261,0.48771170931333485,0.26550353759482204,0.27661245932350803,0.37662965247611346,0.30961245122505743,0.5637351136721891,0.27167511036226777,0.6726721686312701,0.640834944856311,0.3251672212594107,0.20755005322982992,0.8070723130605683,0.30351223743476063,0.585145535160225,0.6440323101566758,0.5929417415690766,0.5959816701197055,0.39750889374425236,0.5426760571971662,0.6339054012451912,0.7604868549547585,0.48408877927444044,0.25294251869255213,0.6406468227990665,0.4574541805181829,0.31814716722444775,0.21834356537351948,0.2521819817085357,0.18077601808418417,0.617248051968485,0.5850155641313544,0.5524509319993832,0.5382325005971962,0.6762292025034282,0.7777737396774693,0.3718111065033181,0.6926097136147581],[0.46871214937772115,0.801254074754344,0.5850047319585712,0.4947639270924065,0.40639022797954794,0.5629076355265475,0.5239651767158301,0.5010097063386967,0.21363230894067142,0.4107617900144991,0.3201030080905278,0.43657940261246053,0.12955640216245898,0.40429942450772277,0.1252621140424845,0.3776800973778047,0.33150493229892664,0.34596412851463565,0.3114836642923123,0.2628172660751018,0.2654769127285579,0.16487299717826615,0.04522959915809901,0,0.4376814272568966,0.462467017505963,0.14060764493932132,0.39764654783423536,0.6890354348473844,0.7216225861564628,0.7668525515108192,0.7646605303290074,0.5453103590625293,0.7432151476937959,0.8490578705968781,0.7893963727536533,0.7905684303420527,0.8187000006476461,0.3454938725382275,0.858807578286707,0.8267361795692248,0.2953465576920158,0.860505272938427,0.8524542300837571,0.515360676070741,0.8360846721287767,0.474543777723641,0.8431958747181529,0.321794034411257,0.4679637964353614,0.8551482984847133,0.8334802998434713,0.5423844331654222,0.2560691447087893,0.22959097331740716,0.4373000722181512,0.3669168664540706,0.6277434330136968,0.29631027466344256,0.7408274264475491,0.7082342060807142,0.39323223158873744,0.14694055734434522,0.8675756063873363,0.26386820809103984,0.5835623297552129,0.7116523615300214,0.6515322280576125,0.6010258738966173,0.46514163806586106,0.5851744138402897,0.6435532505329251,0.826459989873762,0.5475873054957796,0.3077795953037041,0.6548585096026517,0.5249340955497551,0.3479582881507211,0.22462622514768557,0.28877856544090447,0.24563566462948253,0.6841814914790858,0.6505567284339473,0.6169016321221845,0.60143735404104,0.7412699469158314,0.8428564720668899,0.3877672263744249,0.7610204992352692],[0.16263522930866145,0.5978462234183306,0.6594919369681109,0.26077912085356075,0.2804770718657917,0.6813129236585801,0.6697468466819848,0.6667534236195226,0.20249333184667626,0.0909501178954292,0.3852748466984049,0.6748620475711273,0.3262246806007061,0.6618582090849982,0.3438462235515117,0.6614557780508113,0.4813600866464025,0.6491189984830132,0.6462695396596165,0.431053348848445,0.6375776593107602,0.44663362243933435,0.4023428681781227,0.4376814272568966,0,0.6614557780508113,0.2786200842165872,0.43223625936786725,0.28140852991962195,0.3015596022510975,0.31401999134700764,0.31613313771367296,0.08620525146935891,0.3052209865111971,0.5301591649693603,0.33137798759366066,0.33013710965293286,0.3583212101163066,0.098646056754788,0.46491223606653087,0.36868258421226424,0.17469931803665165,0.43990191279095425,0.5149165348953578,0.12057278781091028,0.3849655918722799,0.03467492216825996,0.4107921522549885,0.28112001067709796,0.3595510413695882,0.47663951316925324,0.38912761899969595,0.18545951422784407,0.26261372141291794,0.43230858266473526,0.21281488983721755,0.17297312323172181,0.3617023488858209,0.12764674632132259,0.6435166072376628,0.6540965650270499,0.34844536936814424,0.4742083470306945,0.5093064532557822,0.4037217582329885,0.3100081313012878,0.5142018763457215,0.3037507740949314,0.27919163218715765,0.47532245131017864,0.13487830319426497,0.28434042826100364,0.558307608071611,0.30128646310929696,0.535784389925934,0.2679850355398742,0.38123948295479815,0.07133657321122129,0.6299313860265371,0.12702855609962657,0.28071201055170675,0.6503546121055922,0.6582845726362101,0.6528897161893575,0.6608817843946782,0.46755227525515236,0.553598089182274,0.11226770292533741,0.6117673926425609],[0.5405740684173422,0.5629305847669969,0.16136790827764147,0.47592504653605383,0.3878179884173078,0.10728842292040383,0.05991047774012368,0.028692494370224884,0.5093141857869162,0.5592429627295843,0.25311245688667133,0.032588111554708664,0.3977300316953732,0.06428743676976771,0.5779293723271205,0.1042488413026932,0.15845200609439122,0.13767890895358653,0.18764252532743453,0.2222700605760037,0.2502844349104471,0.28059637113537783,0.41013382740976134,0.462467017505963,0.6614557780508113,0,0.525001700502536,0.2241772069356041,0.9660170316115445,0.9843585559517322,0.9706471294810506,0.9797698607758599,0.7548985368864968,0.9800632202738843,0.7226714977190032,0.9718043222195071,0.9551110475444314,0.9548000989232305,0.5416539854052674,0.8282995623606342,0.9432769313637409,0.4681962429171184,0.8730920045207745,0.7477480372849605,0.6273232736324078,0.9227287089535364,0.6555459954642088,0.8821738208494485,0.3580707359084623,0.3533529730916588,0.8033766195440295,0.9014379443891329,0.5999867345864832,0.6714434531880685,0.709895662599058,0.4711969975301152,0.4710576119503202,0.5385898062714566,0.6048274605499222,0.4175206563918228,0.35549019904610607,0.31228650898540367,0.6321547602380337,0.7850053788591528,0.7356073948630648,0.9496943183743518,0.5044134743293073,0.6363705508279369,0.9407995644903242,0.22345819051145155,0.7314909267038968,0.9608946908096669,0.6490295742315051,0.4942893780935012,0.1345306048755766,0.950840330305279,0.3877278146754251,0.6217618175475955,0.3101662718303742,0.5522773255551476,0.367849513089853,0.321610178949895,0.26196852570803786,0.2160689583633105,0.18472807087418325,0.602383696612076,0.6838041922068953,0.7092123426516511,0.48197395547742083],[0.34305259927159715,0.7310019048607638,0.6043591535056139,0.393316600236834,0.3267365231443746,0.5984201317628541,0.568178289719891,0.5520172948736607,0.0677942884300522,0.27125775240423616,0.3028250513663885,0.5144955117691181,0.10422299137849142,0.48865432964639777,0.06435017111185035,0.4721555278068409,0.35780280552579746,0.4473202242354805,0.425569355046826,0.28509909852887355,0.3948717227301838,0.23081294611112385,0.12683656459552933,0.14060764493932132,0.2786200842165872,0.525001700502536,0,0.3816946640683097,0.5264519471944868,0.5584185330071011,0.6035971345767683,0.6010535781891622,0.3842897944269022,0.5794198794153064,0.7422058669809569,0.6270869202150299,0.6295542699292819,0.6600285281163059,0.2025225214211384,0.7275815334375394,0.6702078098693162,0.17582800538364862,0.7201073816250334,0.7396167286275268,0.37312653182022326,0.6834651498489746,0.320611189312258,0.6983373092229241,0.2542427180756019,0.4054946861730108,0.728975124910459,0.6838612658211939,0.4112170008017144,0.12411123297471575,0.20364830453175842,0.32994749260008666,0.2519186895794916,0.5284659357469239,0.13305303943521948,0.7046781965982754,0.6859964689029261,0.34283667578220767,0.19391842651944655,0.7482919164443127,0.2082259774047201,0.43549447981781264,0.6394034633925102,0.5290572676472836,0.44607999097128803,0.4483139044852927,0.43138257935871577,0.48499706821091665,0.7355437216582354,0.44815086322197806,0.36921529727206964,0.49362055940972854,0.456926177156183,0.18633256569120574,0.368172994502526,0.13507268060091612,0.1835776046387818,0.6681084214663752,0.6481060528623749,0.6232293941278102,0.6159145080427629,0.6454243224125527,0.7455158236780098,0.22521812845484104,0.7075857701217961],[0.29471166727179243,0.40448496017261804,0.21133659025165816,0.22941281841600847,0.14162340581701852,0.226118213087765,0.21575554054745408,0.21687872823209475,0.33104027921400525,0.32301724235418766,0.05701952649506628,0.2558606779856516,0.26785207871042976,0.258952049781865,0.45841441352536133,0.27852183988470663,0.08740310662851779,0.2870872009682618,0.3149434793994716,0.12116728399205211,0.34940436064834396,0.2274622799151397,0.3297982141301413,0.39764654783423536,0.43223625936786725,0.2241772069356041,0.3816946640683097,0,0.7336538848672011,0.7486757468509555,0.7268290519742419,0.7370382709958652,0.5172047106986402,0.7401717952315866,0.5154096060770285,0.7261553121076008,0.7085463916735005,0.7074486500601438,0.3194114411565396,0.5962653446549793,0.6960143406329373,0.25474489790152616,0.6340140088376647,0.5336785702190088,0.38197660600237227,0.6764693569856018,0.41796889317122654,0.6396101616668689,0.13321458759028104,0.11289848282792861,0.5756233982453263,0.6562541988192861,0.3526174119538669,0.5126360061764148,0.6020975296919926,0.22503241176856284,0.23633053000799206,0.30873285179871274,0.408793834196019,0.32053133638322057,0.28844666436514826,0.06583020292549939,0.5555949263065687,0.5651855322183028,0.6126849796773446,0.7442592281830149,0.3235377782654688,0.39530289429332094,0.7262684987813569,0.045056873929078235,0.4864641993144893,0.7386660980560609,0.46052838835503906,0.25297830384434505,0.16844863651203093,0.7233134488737182,0.15982654142566985,0.4108965062595871,0.3855334996677143,0.3498851392558757,0.1791763008282111,0.26663946341559164,0.24322420528000757,0.22046179477952627,0.21809795770816257,0.3941146204774561,0.4883437145426556,0.5039361556489161,0.3487798216047788],[0.4331394767251032,0.813243978024268,0.9552044812010883,0.5288658628250511,0.5752510491005299,0.9814052312018282,0.972269911157308,0.970398510647585,0.47733979788482234,0.3874651961722417,0.6897658161919064,0.9791072969577113,0.6100803962332696,0.9652408331284542,0.5591713195197714,0.9631490595297666,0.7859256542578976,0.9488031398977179,0.9419888457046798,0.7340744978413593,0.9265816921085475,0.739242019249473,0.6714845507589144,0.6890354348473844,0.28140852991962195,0.9660170316115445,0.5264519471944868,0.7336538848672011,0,0.01670611014126043,0.132518036242928,0.11264005567834924,0.19710646696247494,0.0674799873857021,0.6766090167771375,0.17688448310491733,0.20718811399441434,0.26419601842718066,0.4023222250006486,0.5398417595599834,0.29892517903686583,0.4777103983929576,0.4750250127233841,0.6467552615984882,0.3526437067831642,0.3503550111771538,0.29382622635492905,0.4281068381375683,0.5852551766208208,0.646028392338946,0.5702819557948906,0.3792356174097981,0.4117020337962254,0.4330239646980037,0.5829951855681099,0.4979530651213382,0.47453329893620666,0.5859585777235428,0.37725257252521305,0.899882156544912,0.923286890428439,0.6473970220394735,0.664738867263817,0.620193622991,0.5368970682272133,0.18443741622810725,0.7447312286575297,0.4851461318969447,0.12419506711844115,0.7715449242366621,0.26355821216271635,0.06733758950870232,0.7399865780937682,0.5524833581686985,0.8386177908337621,0.024208223133621098,0.6548779419613506,0.337625639383246,0.9106327078263153,0.41009898430659103,0.5829716373903332,0.9253881424061897,0.9425646038007496,0.942911314649368,0.9543792628178854,0.6622684133027306,0.7204957923974701,0.2781321862389651,0.8513287028059126],[0.44213421964835825,0.8073142958057795,0.9666797604921111,0.5355343706375936,0.5880082352954871,0.995024633240848,0.9876128894393743,0.9868815513914396,0.5056643213194911,0.4029565453141657,0.7081140992134342,0.9993247724534452,0.6377737152359021,0.9866130076792361,0.5941288275481181,0.9858570052650322,0.8053257642539733,0.972615100734574,0.9674002416019021,0.7557617008595564,0.953928466860822,0.7653333979725954,0.7018290096213605,0.7216225861564628,0.3015596022510975,0.9843585559517322,0.5584185330071011,0.7486757468509555,0.01670611014126043,0,0.09922146325550342,0.07767244505983299,0.20849982322603977,0.031715197473258384,0.6623597144263139,0.14372849297792165,0.1761752792386568,0.23343203693940734,0.4233421469348143,0.5192353210729086,0.2693835329508506,0.4992787544025688,0.451377909923479,0.631075275821419,0.35879579629109953,0.32272851082954607,0.30751325356845033,0.40372368722895696,0.6030994184660635,0.655670550491637,0.5512551334762847,0.35335297309165886,0.4144077819427395,0.4694950251402135,0.6214361346775413,0.5087612845373399,0.4908618293902419,0.5840864552655848,0.4070032363347681,0.9007346581750024,0.9268498680049196,0.6613964355414141,0.7018032630897513,0.6023595618202671,0.575700865452816,0.22307058701563842,0.7419020338119363,0.4792168398959525,0.1633797202198101,0.7838034720701026,0.2637763923563116,0.1054771309689926,0.7297035858059269,0.5556352385757729,0.8604779366869549,0.06397623692435019,0.661217173886407,0.36463312676006643,0.9397522153272683,0.4364557969886406,0.6051246171941222,0.930374488399419,0.9500317198914178,0.9522259249368286,0.9649422397471621,0.6547900870737385,0.7083921916421536,0.310853147638239,0.8492255955215355],[0.40956331489991943,0.7249883828207049,0.9308108053547777,0.49239480058571466,0.5621896667000079,0.9656262324246652,0.963847922392541,0.966881348425268,0.5369691099973496,0.3930080443188629,0.6980694219998592,0.9919833641738482,0.6633792185204979,0.9834983372422015,0.6528698206451355,0.9876052853775498,0.7973408439331172,0.9785911794417687,0.9795278840839946,0.7565901152768321,0.9738493049692458,0.7824645163879288,0.7372909874406551,0.7668525515108192,0.31401999134700764,0.9706471294810506,0.6035971345767683,0.7268290519742419,0.132518036242928,0.09922146325550342,0,0,0.20523526886052168,0.04453605545178474,0.562609682186609,0.021360453046613673,0.05460126034481615,0.11159324665024964,0.43090103679060576,0.4085961638612153,0.1483225204728809,0.5056788546873482,0.3363391383634961,0.5286893138387639,0.32214078491748455,0.20330921803331625,0.2984919755314285,0.2879988744084885,0.5935807463093234,0.6185339114226129,0.443157198328025,0.23593569732865263,0.3641706530113627,0.5387129287522318,0.7011987140627564,0.47918132396674606,0.47969742409019156,0.5153423261722417,0.44741356202974464,0.834851940119203,0.8681249020184656,0.6378434838216973,0.7710926594924519,0.4960263895398181,0.6589625695789488,0.3377412603984905,0.6680464731038872,0.4023151286770929,0.27662436204553753,0.7525542088631773,0.21777920482589663,0.22239639765064415,0.6379203038058636,0.5015859446493225,0.860475451531252,0.1770668746683515,0.614037344218944,0.3965525529468825,0.9671466498980044,0.46258739518530195,0.6105535717329732,0.8756145870919931,0.9022418507437681,0.9099022261820254,0.9262825057200513,0.5704373493427346,0.6127782194503282,0.36789724517487804,0.7760665475015018],[0.4206982832898067,0.7448599057181668,0.9436952181219781,0.5057141483466974,0.5727173270792416,0.9774561006491627,0.9747134400270514,0.9770994092144909,0.5369004989978162,0.39994932716019393,0.7061339968692609,1,0.6647771732748414,0.9907484917258595,0.6477456986286473,0.9939802226413352,0.8052184087556582,0.9841841730039067,0.9839868658974078,0.762804729505617,0.9768436105936412,0.7857112092799517,0.7369573839891899,0.7646605303290074,0.31613313771367296,0.9797698607758599,0.6010535781891622,0.7370382709958652,0.11264005567834924,0.07767244505983299,0,0,0.2086751042424332,0.022767576047635366,0.5845690284009984,0.043358592801889896,0.07758532084829946,0.13436169487598626,0.43482790891770146,0.4315202417681317,0.17129653889469224,0.5101795198974494,0.35949437795888733,0.550915273393299,0.33346217956850077,0.22645710731521326,0.3044812595917878,0.31116855458742293,0.6012962680001113,0.6311654756667266,0.4658915028701301,0.2591310108401216,0.37818377215172594,0.5311524166863237,0.6917682139966025,0.490093894327291,0.48731234309202104,0.5329381687296728,0.44520348583051367,0.8524351069542967,0.8846409321083976,0.6481694322936075,0.764006615720797,0.5186276969888723,0.6486995406987482,0.31934172683294704,0.6866545718603789,0.42091158309700055,0.25843495387606563,0.7644322796112117,0.22973101918169328,0.20304364974835182,0.6589770562187358,0.5167742875022474,0.8670096286417454,0.15830233451360684,0.6283508346353252,0.3956726783953603,0.9687131686642767,0.46318827230425347,0.6155910007485156,0.8915166251819773,0.9170565614864367,0.923834597803988,0.9396267761874276,0.5904412519818216,0.6342896244609632,0.3619761190165105,0.7946792212520437],[0.2129125714858916,0.613551237732042,0.735568323302601,0.3094961307806289,0.35636486357069885,0.7633354051202901,0.7561548848317262,0.7559364737876515,0.3114147594010424,0.17246730721688278,0.47922722100106807,0.77219229625523,0.43547233624377124,0.76142049425991,0.4435855221777364,0.7633479694128629,0.5775072730948483,0.7527887834987559,0.7521220237169067,0.5321755266404151,0.7454726131973043,0.554153221194082,0.5115426616412915,0.5453103590625293,0.08620525146935891,0.7548985368864968,0.3842897944269022,0.5172047106986402,0.19710646696247494,0.20849982322603977,0.20523526886052168,0.2086751042424332,0,0.20254197904053947,0.5088128854473949,0.2220552501187296,0.22214477733283103,0.2544009829544733,0.20295991294362029,0.4111696052698885,0.2690418159475007,0.27837623389600996,0.37092405570956566,0.4864641993144893,0.1350431922578054,0.2933964506568427,0.07626930033909189,0.33469459698529785,0.37400106182187354,0.4257479348640079,0.4306785210122262,0.30398829784725984,0.19862144175882454,0.346680266210248,0.516940500978439,0.27786970554606777,0.2606524597279752,0.37919195911893366,0.2293432604591085,0.6855550702428391,0.7056053623143592,0.4297291850655651,0.570274555087241,0.471541683124281,0.4823259544650264,0.2902252958778049,0.5381170975298813,0.2929426470781844,0.2431046568720302,0.5523345642351646,0.071266854931023,0.2274721360690003,0.554946224058746,0.33666577172529105,0.6366901109087805,0.19781930170524042,0.4354489945624337,0.17476172948534532,0.7389888692274998,0.23616547203791646,0.38398518481476823,0.7064986217056939,0.7224451196068817,0.7226291720755049,0.7343590043001779,0.4694950251402135,0.5426333662323019,0.1757673081097844,0.6423400693195913],[0.4272690988470777,0.7719109699788133,0.9524127731743081,0.5166537888682284,0.5770976813019638,0.983711007194416,0.9788136575928642,0.9797698607758599,0.5200580726653877,0.3977952419428197,0.7047626703123395,0.997913836373073,0.6502139913872921,0.9870750325631463,0.6214548712238332,0.9884989141323546,0.8031985926510837,0.9771290468856343,0.9746639238418877,0.7574471891585898,0.964663008026148,0.7743787613064125,0.7189509165445973,0.7432151476937959,0.3052209865111971,0.9800632202738843,0.5794198794153064,0.7401717952315866,0.0674799873857021,0.031715197473258384,0.04453605545178474,0.022767576047635366,0.20254197904053947,0,0.6188708998975544,0.08893139822791284,0.12200910138914,0.17918172656632092,0.4262954629439905,0.47059530348626555,0.21557625994257013,0.5023067904908568,0.4006293013119276,0.5863464533914281,0.3412523408246804,0.26977732653554337,0.30146491749087306,0.352594037227656,0.599553137920262,0.6400159146727421,0.5038174095244279,0.3013735881694976,0.3915412544427019,0.501126994149743,0.6583840597623691,0.4957233612650397,0.4859188341241682,0.554153221194082,0.4248935333410047,0.8728797328047231,0.9022546055318577,0.6518230577131087,0.7342064351437626,0.5557983560357903,0.6141234946146114,0.2749423087918069,0.7101685877168084,0.4452439219215338,0.21435564361513001,0.7711966789948413,0.2405316672830227,0.15801170998897784,0.6899155751536632,0.5320474937978572,0.862073207033079,0.11400137181610437,0.6411164082236221,0.378181720412433,0.9538129959400725,0.44800407785067276,0.6083093508049511,0.9075657871558733,0.9303860032844139,0.9350370096413602,0.9494200228990353,0.6181762021644913,0.6668429378739105,0.33561689719391047,0.8180140184306679],[0.38010506814651895,0.19283470338501738,0.5840200036558565,0.33124170367319355,0.4237034722041498,0.6426992264620057,0.6686811808734715,0.6893082597750297,0.6523515181318078,0.4629822280274008,0.5562604307249907,0.7699942668996214,0.6964477982654355,0.783688830382552,0.8284410769135583,0.8102096440256472,0.6259089370455411,0.8234237383601157,0.853496592577723,0.641652966073365,0.8861189519422552,0.733648081674604,0.7856650554587808,0.8490578705968781,0.5301591649693603,0.7226714977190032,0.7422058669809569,0.5154096060770285,0.6766090167771375,0.6623597144263139,0.562609682186609,0.5845690284009984,0.5088128854473949,0.6188708998975544,0,0.5302484520600824,0.4951877372677306,0.4522742096088602,0.5282031392742551,0.1546539162527029,0.4178195315310605,0.5437495494148622,0.23534709564981107,0.01706907826361286,0.3866381540567072,0.3643775241850051,0.4729971486945636,0.2770479743952278,0.508779861441561,0.3871094244619213,0.11411137340833884,0.32753889075591114,0.32554525339749757,0.7955296153917009,0.9524473811936484,0.39124197465296806,0.467595344583481,0.19917023155009903,0.6456788205382233,0.3611256540005944,0.4226432469745473,0.46205988596218556,0.9590795898965634,0.06411468490624642,0.9357277339081963,0.8210759029890509,0.2028154244029042,0.20349941114223932,0.7698520148718762,0.4834715130317312,0.4149600833147858,0.7411568268561145,0.07683346901778004,0.2783953486898105,0.7070536756095193,0.7006547191662608,0.33331514276319607,0.6003412312053592,0.9162843249469123,0.6023648276724421,0.5817966897849364,0.44811125897456655,0.503252999657932,0.5361496394564593,0.566823633879906,0.09851982397591975,0.03747689741828476,0.6655922665355627,0.2789446089871752],[0.40828262951029687,0.6998670029139024,0.923770826054518,0.4855860469531529,0.5613712711891353,0.9609290005514036,0.9612859740515414,0.9657183950109507,0.5565957372404744,0.4006416072772317,0.7019743846437243,0.9953998414722643,0.6800524649135107,0.9884815485576223,0.6802694621003383,0.9943266800831789,0.8013829198034622,0.9868565483114397,0.9899684812888759,0.7640512497615782,0.9870348176175386,0.795513521458454,0.7567872271211747,0.7893963727536533,0.33137798759366066,0.9718043222195071,0.6270869202150299,0.7261553121076008,0.17688448310491733,0.14372849297792165,0.021360453046613673,0.043358592801889896,0.2220552501187296,0.08893139822791284,0.5302484520600824,0,0.012982490845457694,0.06821567947898924,0.44401110315329284,0.37140852824104964,0.10561998817261409,0.5172941062723345,0.2969805785316381,0.49519885761786403,0.32128759812573005,0.16171710185571223,0.30897094507826267,0.24848378678877814,0.5985384703329599,0.6127933264599399,0.40716655776083693,0.1956311854584735,0.3565904429779794,0.5699395764402929,0.7346875940590135,0.4779295595676289,0.4853901563242367,0.49750409241822374,0.4709592964890391,0.8162483776924929,0.8523147156959985,0.6371787219119487,0.8012004666190901,0.4607054124438665,0.6936137668648263,0.3811797490667189,0.6468650638164501,0.3821479795942945,0.3199918431242738,0.7481453061597026,0.217295717622273,0.26646893206672784,0.6089545335698658,0.490175712410705,0.8670885665156866,0.22092102066859606,0.6043381567720959,0.41824321343801263,0.982931270435255,0.48141285757991753,0.6207152157184698,0.8613721390536574,0.8906675397459326,0.9004425539488335,0.9181828192377302,0.5452118474034833,0.5821545830968171,0.3974716998405145,0.7546645984768627],[0.3914538764802275,0.6675173031426831,0.9014608040912642,0.4644097614423846,0.5441212837514697,0.9401395480815004,0.9419615419787044,0.9473696694049777,0.5557997783696494,0.3906905221705631,0.68779638885306,0.9803389875422215,0.6762449013933809,0.97460670207869,0.6863432000398121,0.9817745982776045,0.7870905361381139,0.975517459089234,0.9803553998710175,0.7524618455419008,0.9796691354909625,0.7883579334240602,0.7552597153827013,0.7905684303420527,0.33013710965293286,0.9551110475444314,0.6295542699292819,0.7085463916735005,0.20718811399441434,0.1761752792386568,0.05460126034481615,0.07758532084829946,0.22214477733283103,0.12200910138914,0.4951877372677306,0.012982490845457694,0,0.0340645371217624,0.438202895995554,0.3353268276773699,0.07052875319096741,0.5098397347468323,0.2608148851395917,0.4598264630193786,0.30552509611398904,0.12595574197384385,0.3022384948755726,0.21232121172234558,0.5854662823047415,0.591912151670253,0.37125475876450076,0.1595368388196667,0.33562301750621365,0.5802392717911812,0.7470352168544614,0.46071845973367853,0.4733693318065098,0.4692743400355473,0.4741310776553741,0.787074274584214,0.8246679059947479,0.6197971344624266,0.8097707929053342,0.4249039477426303,0.7073633596718222,0.4082170955854962,0.6165069652780085,0.3529627502134134,0.3470489371182694,0.7278666720024016,0.2034848797217528,0.2954163528649732,0.5750386329709891,0.4659167591829804,0.854640917436561,0.2494852792647857,0.5808399075507457,0.4200453817887389,0.9777602854140602,0.48026697675069424,0.6116614651348196,0.8346295658213059,0.8655047702093394,0.8765938171079823,0.8951873226778292,0.5129801629772922,0.5476392438156261,0.4068883638221741,0.7240720419360633],[0.39442235880536064,0.6336630580585388,0.890638702632879,0.4582160197439279,0.5446842297138977,0.9322159666670033,0.936838664338258,0.9440571329122315,0.5822992226199493,0.40530254085294204,0.6928976605977609,0.9828578748009327,0.6978258017913392,0.9791949338284724,0.7211816615543628,0.9885900785098078,0.7915541893888075,0.9843672743068681,0.9920006698478092,0.7616303838067502,0.9948639414603684,0.8044545902826531,0.7797792232285312,0.8187000006476461,0.3583212101163066,0.9548000989232305,0.6600285281163059,0.7074486500601438,0.26419601842718066,0.23343203693940734,0.11159324665024964,0.13436169487598626,0.2544009829544733,0.17918172656632092,0.4522742096088602,0.06821567947898924,0.0340645371217624,0,0.45855118921956967,0.28646108472089993,0.014672987085019462,0.5270329711807511,0.20916825924790616,0.4155260807021418,0.31197870614767037,0.0717509167281689,0.323283550203604,0.16085406212060005,0.5930553413445023,0.5852551766208208,0.3239167941610177,0.10734731509301411,0.3316627757500326,0.6204815534971289,0.7890544293525426,0.4621209774670686,0.48364702306128327,0.4475302082464453,0.5064361134658103,0.76142049425991,0.8025698774411967,0.6195938873478254,0.8472924426329606,0.3781899273066781,0.7509970713978267,0.4636440820470513,0.5884307174189661,0.3300757283880845,0.4025834163906812,0.7216568611625094,0.21660071404789372,0.3518928499410463,0.5364106663294734,0.45332208234192745,0.8620000241275377,0.3058898235094925,0.568946947571241,0.45107008493591644,0.996311678985161,0.5068366076370964,0.6256399153323627,0.8145779756174539,0.848851710421004,0.8626943979058341,0.8829948170973404,0.4801181042354533,0.5068573235512228,0.44711948525216477,0.6949758034364796],[0.1250030188931504,0.5520368609036493,0.5514199720539746,0.20055349346911175,0.18257150668057529,0.568445600856211,0.5538945114487744,0.5491851306470842,0.11270470853669831,0.04569339564260134,0.26628976603318466,0.553589998478046,0.2160907560453028,0.5401259285068819,0.2835637746429168,0.5396442678629305,0.3607883720757673,0.5276492639034895,0.5260022804628874,0.30922868702579853,0.5200580726653877,0.32855176318229906,0.29988161997657004,0.3454938725382275,0.098646056754788,0.5416539854052674,0.2025225214211384,0.3194114411565396,0.4023222250006486,0.4233421469348143,0.43090103679060576,0.43482790891770146,0.20295991294362029,0.4262954629439905,0.5282031392742551,0.44401110315329284,0.438202895995554,0.45855118921956967,0,0.5021025032027951,0.4625936110629476,0.0529031511662952,0.4951903849917807,0.5215885020316862,0.14811753908802922,0.4682833820048327,0.11282584981812104,0.47536374819052174,0.16431166696955174,0.2681198163028801,0.5046335096593682,0.46481943257603475,0.18707409394419505,0.24747554631543697,0.4011387285889112,0.13851625306170198,0.07059023962389312,0.3273008795788753,0.10005281284558801,0.568178289719891,0.5688741603843305,0.24093833703753909,0.416972191564269,0.5266062479627274,0.38525132467006273,0.40370375385029195,0.4625919158314774,0.3078293550342691,0.3836675281806984,0.36881495502476475,0.21992945128457597,0.3976811173792908,0.5350826769877085,0.25224178572843803,0.4139540099200095,0.3860006755489796,0.30238101737425344,0.07478165715627672,0.5163653981227017,0.05099257043428817,0.15895906537673601,0.5606048642864757,0.5607346273948927,0.550323982406366,0.5549728128448196,0.4429122651229207,0.5390337998660428,0.16808015988719904,0.5493697429121382],[0.366902792929972,0.36318579191545725,0.7140001549368765,0.3622845901249547,0.4659055343160582,0.7678293447278451,0.7864442268776827,0.8025675504390426,0.6369729256157971,0.4332315044420921,0.6167626685201684,0.8696613164536187,0.7114177300147267,0.8771818195422799,0.8083752784072658,0.8979772352807495,0.7020353274802149,0.9049786192736242,0.9274313300320335,0.7003588569859313,0.94975300530395,0.7774227178725581,0.8021725298911154,0.858807578286707,0.46491223606653087,0.8282995623606342,0.7275815334375394,0.5962653446549793,0.5398417595599834,0.5192353210729086,0.4085961638612153,0.4315202417681317,0.4111696052698885,0.47059530348626555,0.1546539162527029,0.37140852824104964,0.3353268276773699,0.28646108472089993,0.5021025032027951,0,0.24985951495333186,0.5404713199898395,0.05841727308216544,0.11469391218644197,0.3346830915435334,0.19372236389079822,0.40800324577574537,0.10375030564474905,0.5438604175734264,0.4602059472953347,0.017395003340299555,0.15678962291133272,0.294145581101167,0.7487642959961925,0.9158283958140788,0.40618889392004925,0.46941478745016746,0.26665840515005684,0.603539759658929,0.5205798005098804,0.5760289586203388,0.5242646067884391,0.9419390727081771,0.0711010674280983,0.8906444100503988,0.7086844312871446,0.34864917739834106,0.18880071413880134,0.6523108820081356,0.5817331631493962,0.31928321995699716,0.6147498885545968,0.251186330406911,0.32323601024469484,0.7824467985342691,0.5709476419901783,0.4180510205226296,0.550794290109341,0.9699508399079116,0.5733821363375866,0.6062180795023695,0.5970744330034645,0.6458035713426558,0.6723580893970118,0.6999546958480084,0.22862591340744282,0.21456240128607898,0.5957422186006914,0.44213421964835825],[0.38740904218548994,0.6032611319377774,0.8727280793583639,0.44473675303658694,0.5349897371127469,0.9159917958654021,0.9223304697505567,0.9306631821829002,0.5899167384649209,0.40590430862391985,0.6855070418809543,0.9730913320716409,0.7015336268314575,0.9707697585321149,0.7344209654208613,0.9815997668821903,0.7834506501780021,0.9787226995898298,0.9882025731550306,0.756697125031035,0.9934576149944669,0.8040631254410531,0.7853161016442889,0.8267361795692248,0.36868258421226424,0.9432769313637409,0.6702078098693162,0.6960143406329373,0.29892517903686583,0.2693835329508506,0.1483225204728809,0.17129653889469224,0.2690418159475007,0.21557625994257013,0.4178195315310605,0.10561998817261409,0.07052875319096741,0.014672987085019462,0.4625936110629476,0.24985951495333186,0,0.5284659357469239,0.1717772352594942,0.380527532541709,0.30831908927366486,0.034006979597606006,0.32919423603327436,0.12364087724795118,0.5876991580401244,0.5707701986201856,0.2878294630818126,0.07011780826354677,0.32087616813683334,0.63816233219967,0.8077660066007166,0.4534942963824059,0.4807008008369452,0.42452090606460313,0.5185967912305085,0.7351626560909377,0.7782242892556772,0.6090513627436234,0.8623184496975267,0.3422489888631241,0.7711054466772346,0.49553764918473037,0.561215815577934,0.30727826334155967,0.43471582021563,0.7069619478417375,0.21948644787203114,0.3854609589918327,0.5038033457114938,0.4358534156968066,0.8556160298009445,0.33942876262934446,0.5512861936360426,0.4626393800766969,0.9972073677133514,0.514887966777582,0.6244016542576281,0.7913752636537472,0.8275538854360487,0.8429933899793508,0.8642745488418101,0.4506201391009711,0.47327866207858954,0.46549621194350427,0.666963863137266],[0.1504855077242875,0.538453460613225,0.4890451471173653,0.19469083417313607,0.14190962524013936,0.5016293593122124,0.4843392616378257,0.47797995308153013,0.08857830326010009,0.09950815464410598,0.19482685734289,0.47848142109253256,0.1529588099051397,0.46438949404825186,0.2629516029836851,0.4635623159321336,0.2867650020422957,0.45162946062804893,0.45069197377758796,0.23332932768179868,0.44672943322504033,0.25532897295512297,0.24181817721153342,0.2953465576920158,0.17469931803665165,0.4681962429171184,0.17582800538364862,0.25474489790152616,0.4777103983929576,0.4992787544025688,0.5056788546873482,0.5101795198974494,0.27837623389600996,0.5023067904908568,0.5437495494148622,0.5172941062723345,0.5098397347468323,0.5270329711807511,0.0529031511662952,0.5404713199898395,0.5284659357469239,0,0.5429728644137959,0.5424489818873732,0.20211839664482473,0.52957546772867,0.18512771771837938,0.5279999834560131,0.09854688487579784,0.22766808357783838,0.5379972683920082,0.5227698365804401,0.22385296403319674,0.26185587559661305,0.3953468396467295,0.13098736543960615,0.05299327927802535,0.3295772905711166,0.13404078973003059,0.5326241501567012,0.5255562471945595,0.18454712006878063,0.39221582806288424,0.5535086091988446,0.38852866660048446,0.4668318417973641,0.4471013911933273,0.3352349361566827,0.45180113251229603,0.3099422172582952,0.2872437537822717,0.4695735785520496,0.5371087564288671,0.24950138599317007,0.33801799187035236,0.4600173785892961,0.27171699983503156,0.1335459413173061,0.44608467063575674,0.07384701773869431,0.08286210840566186,0.5137419506989607,0.5074039311573193,0.4928061930203688,0.4944930367546949,0.4466079137822023,0.5465186354736109,0.22603451895398832,0.5239155066417391],[0.37307735144579585,0.43952654053619,0.7704509622823454,0.3884913281650944,0.49143182795201823,0.8216778509028551,0.8369279590454912,0.8509393876268108,0.631073597566933,0.42754506720411883,0.6454444394993938,0.9114331110742412,0.7179134072994234,0.9161615965647849,0.7969958535775096,0.9342219333764669,0.735740512483553,0.9384011742083355,0.9572392900735761,0.7265497431033406,0.9747335208907685,0.7957163489449064,0.8077848363194415,0.860505272938427,0.43990191279095425,0.8730920045207745,0.7201073816250334,0.6340140088376647,0.4750250127233841,0.451377909923479,0.3363391383634961,0.35949437795888733,0.37092405570956566,0.4006293013119276,0.23534709564981107,0.2969805785316381,0.2608148851395917,0.20916825924790616,0.4951903849917807,0.05841727308216544,0.1717772352594942,0.5429728644137959,0,0.1957315186950523,0.3239270748367604,0.11476755144627494,0.3856919696909492,0.025307322590788724,0.5635203997764376,0.4986694607966215,0.09874739911683848,0.07863937028099029,0.29758359576510857,0.7256880987925565,0.8952745983640109,0.4227842225180909,0.4769733134401474,0.3144601012775403,0.5856831757645884,0.5912017160807183,0.6436504072749848,0.5561244531703153,0.9301844727178614,0.15270929929558844,0.8663985483513471,0.6541208827137588,0.416972191564269,0.21572796767209226,0.595857078202429,0.6269653335720892,0.28515964029394847,0.5542958424284362,0.32997547528872234,0.35784026948694986,0.8146091030811289,0.5093698566968208,0.46268401483834565,0.5307660333914511,0.990251304440103,0.5627127649484395,0.6193687887672817,0.6626623627676811,0.7082447144932527,0.7318673013220895,0.7578859168709193,0.2977239086466787,0.2945976669143479,0.5643825220846139,0.5149751968110039],[0.3744879982448602,0.23173204263278377,0.614379723211821,0.33510011929577205,0.4317737213802344,0.6720900629455892,0.6964268182148547,0.716063535779699,0.6491014412350966,0.45485427157661223,0.5699437417007271,0.793822230214948,0.7003709973012925,0.8061275085064518,0.8249932266696697,0.8314004027248941,0.6436981570953646,0.8432190037656886,0.8716219178167253,0.6554266761955418,0.9019689154748691,0.7443894148723884,0.7903582459305913,0.8524542300837571,0.5149165348953578,0.7477480372849605,0.7396167286275268,0.5336785702190088,0.6467552615984882,0.631075275821419,0.5286893138387639,0.550915273393299,0.4864641993144893,0.5863464533914281,0.01706907826361286,0.49519885761786403,0.4598264630193786,0.4155260807021418,0.5215885020316862,0.11469391218644197,0.380527532541709,0.5424489818873732,0.1957315186950523,0,0.37252833346999703,0.3263825524558851,0.45725310480154974,0.23827370476251267,0.5160681995082751,0.4022815808180754,0.07410691340955851,0.28942199304672833,0.31468765947634014,0.785944992229241,0.9456805349304138,0.3923486295884262,0.4666923349164578,0.2084583522435238,0.6363755451448773,0.3978376231876103,0.4580751561428429,0.4753841200581676,0.9567307038427735,0.024248741696008328,0.9270058837991275,0.7969928413836199,0.23492949032580668,0.19170208940497344,0.7444877555605361,0.5057452878551406,0.39208893321619553,0.7137573311889533,0.11638761936184788,0.2844145054770123,0.7250305750084268,0.6724149182576465,0.350692894589866,0.5890923636926817,0.9299330756012721,0.5957133894858329,0.5871889283538005,0.48256211265283827,0.5363414962550703,0.5678346917287694,0.5978740695467798,0.12250921976210136,0.07767244505983299,0.6502714660113015,0.3163207676587465],[0.064237216886874,0.46243140712217207,0.5880679662158976,0.15354998592647517,0.2171666995888375,0.6208107028737736,0.6185150895906986,0.6218720441622283,0.28396441207595646,0.08143411293157764,0.35922959842941254,0.6516489817322242,0.3781509430643861,0.646038236787683,0.4515392646701198,0.6540641400865369,0.4584417717715351,0.6492496426727183,0.6571182415119882,0.4264566610214501,0.6620569324174207,0.4733134944814332,0.46599252029777627,0.515360676070741,0.12057278781091028,0.6273232736324078,0.37312653182022326,0.38197660600237227,0.3526437067831642,0.35879579629109953,0.32214078491748455,0.33346217956850077,0.1350431922578054,0.3412523408246804,0.3866381540567072,0.32128759812573005,0.30552509611398904,0.31197870614767037,0.14811753908802922,0.3346830915435334,0.30831908927366486,0.20211839664482473,0.3239270748367604,0.37252833346999703,0,0.30499021006757193,0.06458815273689449,0.30464206615373657,0.25801649271538873,0.27557786366501147,0.3412854808084747,0.29745948750362,0.04421104567107237,0.3936644404175269,0.5586884406460443,0.1339150397267306,0.14918619490602747,0.225836183806188,0.24627208770110195,0.5273781003221442,0.5478099337101666,0.2929521984102979,0.585076491508982,0.36971305549033207,0.535595780629063,0.4364557969886406,0.3832219865219725,0.16005437860323518,0.3954838932773048,0.40781986149003613,0.08132123666621999,0.384982405220764,0.41588633566547517,0.17845473806237555,0.5272010741112224,0.35602407124115204,0.27936950917568854,0.19531106579904892,0.6673519537500155,0.2164907924211985,0.29334095322360015,0.5495499821303041,0.5680413387797681,0.5709850646832509,0.5849794561384554,0.3260643794826592,0.4100559016869191,0.2558449383274419,0.48580451363556126],[0.3773540139301507,0.5553316418530229,0.8427651814317901,0.4238705170773846,0.5191133445371237,0.8884501341632696,0.8973485424047333,0.9073342396125904,0.5998228493724526,0.40716655776083693,0.6721623099939963,0.9551099251639873,0.7048984111058628,0.9548135716702916,0.7519690552931061,0.9677770448799005,0.7685796107641589,0.9669356897297035,0.9791752162005866,0.7467386375018203,0.9880255955617935,0.8007754738142587,0.7910540422142229,0.8360846721287767,0.3849655918722799,0.9227287089535364,0.6834651498489746,0.6764693569856018,0.3503550111771538,0.32272851082954607,0.20330921803331625,0.22645710731521326,0.2933964506568427,0.26977732653554337,0.3643775241850051,0.16171710185571223,0.12595574197384385,0.0717509167281689,0.4682833820048327,0.19372236389079822,0.034006979597606006,0.52957546772867,0.11476755144627494,0.3263825524558851,0.30499021006757193,0,0.33970042512399157,0.06694559678301369,0.5780462651452305,0.5472635462708257,0.23233004602329724,0.013852208363249838,0.3061824814182521,0.6628032328397971,0.8332995561191233,0.44005541343569915,0.4756527306282345,0.3888425756063803,0.5358055062757964,0.6930647777728673,0.7388703675708892,0.5913424394964334,0.8821083273052259,0.28685443695563323,0.7988666318280788,0.5420081567641,0.5181897853744892,0.2733951317235357,0.48175654966929987,0.6824081424684691,0.2288917548505786,0.4348285082487893,0.4528586961360908,0.4088300533569267,0.8430808539828608,0.3889444945999778,0.5230116267433861,0.47948995546110096,0.9952416347414512,0.5260307702757611,0.6207459095625533,0.7536942203258209,0.7926306209907066,0.8104220677394061,0.8331190948139051,0.4045536328944989,0.42098575032459207,0.4922819163124022,0.6224220445777309],[0.12189562769960226,0.5477354134128416,0.638270655836492,0.22108177052249617,0.2582311659089487,0.6647197134584151,0.6569116171776769,0.6564997955479899,0.23774298346902806,0.0731400876280373,0.38010506814651895,0.6734370450105832,0.351666640552066,0.6633392351287659,0.391488300299679,0.6663124461272164,0.47865648832163077,0.6569116171776769,0.6583067268969273,0.4351562248985737,0.6549520227205785,0.4634607940564345,0.43342812895073946,0.474543777723641,0.03467492216825996,0.6555459954642088,0.320611189312258,0.41796889317122654,0.29382622635492905,0.30751325356845033,0.2984919755314285,0.3044812595917878,0.07626930033909189,0.30146491749087306,0.4729971486945636,0.30897094507826267,0.3022384948755726,0.323283550203604,0.11282584981812104,0.40800324577574537,0.32919423603327436,0.18512771771837938,0.3856919696909492,0.45725310480154974,0.06458815273689449,0.33970042512399157,0,0.35872392720271107,0.2749045560048739,0.3307580924018031,0.41905025645722466,0.3406221075789786,0.13122219988655376,0.31804984513069123,0.4867135148029612,0.182106725081861,0.16130245389562056,0.31095831636705157,0.17722992642747426,0.6029451162846563,0.6179775788486453,0.33083563865930576,0.5235676897809552,0.4514380629083597,0.45969459631232096,0.35302112703461264,0.46629600829988405,0.2469527412860734,0.31588145366019044,0.4545257022971805,0.08771292486852826,0.3121760271747053,0.5036428874991752,0.25606226385797276,0.5393344808086822,0.28882079806567756,0.3454797258084803,0.12189751965497664,0.6523389211949008,0.16326197922063174,0.28907671107691707,0.6166271070452244,0.629134014456102,0.6272511105367746,0.6377973875457832,0.4136166708445383,0.4976817253019076,0.16982309243873792,0.5665164873034578],[0.36256292830897113,0.4749699120148828,0.7880930405178267,0.38963860530877936,0.4906519235869613,0.8372492824568569,0.8500580786325397,0.8625490584510526,0.6106765741509962,0.4092434991276778,0.6452255823349172,0.9183551402950929,0.7039748740306757,0.9212196223045548,0.772784309696685,0.9374355121937435,0.7381395002448589,0.9397838576201807,0.9562686586090465,0.7242891135755409,0.9707034744374071,0.7883038116346346,0.7929021138892282,0.8431958747181529,0.4107921522549885,0.8821738208494485,0.6983373092229241,0.6396101616668689,0.4281068381375683,0.40372368722895696,0.2879988744084885,0.31116855458742293,0.33469459698529785,0.352594037227656,0.2770479743952278,0.24848378678877814,0.21232121172234558,0.16085406212060005,0.47536374819052174,0.10375030564474905,0.12364087724795118,0.5279999834560131,0.025307322590788724,0.23827370476251267,0.30464206615373657,0.06694559678301369,0.35872392720271107,0,0.5584336360426994,0.5058802045465012,0.14288437082940145,0.030338159050921156,0.2873206745381424,0.6956921307065261,0.8659874293711616,0.41755055302593014,0.46563830641571247,0.33049741244174163,0.5591185241459858,0.6206862257444443,0.6703962254598642,0.5585940815826078,0.9053307911995123,0.19739660610713858,0.8353499134828246,0.6102437943910208,0.44558836623297104,0.2227493497553377,0.5514085065528554,0.6375132638495088,0.2535264300191573,0.5085615418296291,0.36861603173000795,0.36472371548308363,0.8156533327195769,0.4633575584338815,0.4742707057019171,0.5034531920372032,0.9833208052255142,0.5401868380081172,0.6099399354756723,0.6876840273716676,0.7306174508565241,0.7519198298670304,0.7766639301298527,0.328267578367264,0.33498977684827946,0.531025633404016,0.5467460159266079],[0.17765132807832837,0.46052611839483115,0.3673247780297369,0.16013674992410534,0.06211415839213923,0.3813311030244583,0.3664655570896559,0.3625145360964831,0.1864203256313317,0.17861122758713163,0.08203059655428628,0.3755461504990815,0.17014139898425273,0.36688801518320496,0.33916750230944415,0.37312930236394687,0.18073833180324164,0.3681302064555335,0.3779758092264923,0.14583334783845495,0.38909033480808536,0.2103736751041651,0.2558449383274419,0.321794034411257,0.28112001067709796,0.3580707359084623,0.2542427180756019,0.13321458759028104,0.5852551766208208,0.6030994184660635,0.5935807463093234,0.6012962680001113,0.37400106182187354,0.599553137920262,0.508779861441561,0.5985384703329599,0.5854662823047415,0.5930553413445023,0.16431166696955174,0.5438604175734264,0.5876991580401244,0.09854688487579784,0.5635203997764376,0.5160681995082751,0.25801649271538873,0.5780462651452305,0.2749045560048739,0.5584336360426994,0,0.1291028641237577,0.5327189669078993,0.5641988895366741,0.2497217512890789,0.3694216079312625,0.4810422562660964,0.11778090301754852,0.09078887636556392,0.28641409712511545,0.2543020779828741,0.42789998332109047,0.4133652246673208,0.06763727385154063,0.455159087561352,0.5366852999873011,0.48327209453575154,0.58786854095594,0.36962920784853814,0.331901728527851,0.5706800703612583,0.18893663203975292,0.35888273981299984,0.5850173694747288,0.48154122567581065,0.2084630921601299,0.24608152260111876,0.5718898840074224,0.1833770428324522,0.25448897875092696,0.4038374825679,0.19465681511031532,0.053878080615892436,0.3987051751762417,0.3881017396284887,0.37175064166659505,0.3728112559685081,0.3973959968258058,0.4988777204661028,0.3475845986375956,0.4309475820057346],[0.190348906367075,0.3102551929195059,0.2894009180590872,0.10432635963513512,0.06336633789767912,0.3250568845874139,0.3284705909547872,0.337018782255229