"trial_id","rt","stimulus","response","trial_type","trial_index","plugin_version","time_elapsed","language","participant_number","success","raw_payload","placements","dissimilarity_vector","n_words","trial_category","distance_matrix","value"
"consent_form","9696","
    <div style=""max-width:800px; margin:0 auto; text-align:left; font-size: 16px; padding: 10px 0;"">
      <h1>Informed Consent Form</h1>
      <p>You are being invited to participate in a research study titled <strong>""Reproducibility of Psychological Science and Instruction.""</strong> This study is being done by Dr. Bria Long from UC San Diego and associated graduate students in the Experimental Methods course. You were selected to participate in this study because you are an adult in the U.S. and have been a represented population in previous psychology studies.</p>
      
      <p>The purpose of this study is to better understand how well previously published studies in the psychological field replicate online and with different populations. Your participation in this research should last approximately <strong>5-30 minutes</strong>. If you agree to take part in this study, you may be asked to view a set of stimuli, including pictures, sounds, written text, or videos and then giving some responses via key-presses, verbally, or with paper-and-pencil. We may also observe your choices or preferences among an array of stimuli. These stimuli will be taken directly from or closely adapted from studies that already exist in the published psychological literature. Stimuli will include, e.g., pictures of objects and human faces, audio and video clips, short text passages, etc. None of the stimuli will be disturbing, threatening, or offensive. The online and in-person experiments described in this protocol will take no more than 30 minutes. An example game you might play would be to click on an image on the screen that matches a word you hear being said out loud. Your total expected time commitment for this study is between 5-30 minutes, and is specified in the study description.</p>
      
      <p>Your participation in this study is completely voluntary and you can withdraw at any time. Choosing not to participate or withdrawing will result in no penalty or loss of benefits to which you are entitled. You are free to skip any question that you choose.</p>
      
      <p>We will not be asking for any personally identifying information, and we will handle responses as confidentially as possible. Your SONA or Prolific IDs will never be tied to your responses on this survey. However, we cannot guarantee the confidentiality of information transmitted over the Internet. To minimize this risk, data containing anything that might be personally identifying (e.g. Prolific IDs or IP addresses) will be encrypted on transfer and storage and will only be accessible to qualified lab personnel. We will be keeping data collected as part of this experiment indefinitely. This anonymized data (containing neither Prolific IDs nor IP addresses) may be shared with the scientific community or with other participants to be used as stimuli in future studies.</p>
      
      <p>If you have questions about this project or if you have a research-related problem, you may contact the researcher(s), <strong>Dr. Bria Long, <a href=""mailto:brlong@ucsd.edu"">brlong@ucsd.edu</a></strong>. If you have any questions concerning your rights as a research subject, you may contact the UC San Diego Office of IRB Administration at <a href=""mailto:irb@ucsd.edu"">irb@ucsd.edu</a> or 858-246-4777.</p>
      
      <h3 style=""margin-top: 25px;"">Consent Statement</h3>
      <p style=""font-weight: bold;"">By participating in this research you are indicating that you are at least 18 years old, have read this consent form, and agree to participate in this research study. Please keep this consent form for your records.</p>
    </div>
  ","0","html-button-response","0","2.1.0","9699","en","bndm75w62v_5sgdtx","","","","","","","",""
"","12597","
    <div style=""display:flex; align-items:center; justify-content:center; height:100vh; font-family:sans-serif;"">
      <div style=""max-width:900px; margin:0 auto; text-align:center;"">
        <h1 style= ""font-size: 24px;"">Welcome! Thank you for participating in the study.</h1>
        <p style=""font-size:18px; line-height:1.6;"">
          In this task, you will be presented with <strong>90 words</strong> arranged <strong>outside a circle</strong>.<br>
          Your job is to <strong>drag these words into the circle</strong> and <strong>rearrange them</strong> based on their <strong>meaning similarity</strong>.<br><br>
          Words that are <strong>similar in meaning</strong> should be placed <strong>closer together</strong>.<br>
          Words that are <strong>different in meaning</strong> should be placed <strong>farther apart</strong>.<br><br>
          You can place the words <strong>anywhere inside the circle</strong>. There is no single correct answer — 
          we are interested in <strong>your personal judgment</strong> of how these words relate to each other.<br><br>
          <strong>You must move all words into the circle before you can finish.</strong><br>
          After the initial arrangement, you will arrange words from specific categories.
        </p>
        <p style=""font-size:16px; margin-top:30px;""><em>Press any key to continue.</em></p>
      </div>
    </div>
  ","s","html-keyboard-response","1","2.1.0","22300","en","bndm75w62v_5sgdtx","","","","","","","",""
"","3905","<p style='font-size:20px;'>Which is your first language or primary language of use?</p>","1","html-button-response","2","2.1.0","26208","en","bndm75w62v_5sgdtx","","","","","","","",""
"","2093","","","fullscreen","3","2.1.0","29315","en","bndm75w62v_5sgdtx","true","{""placements"":[{""word"":""proud"",""x"":453.1,""y"":270.2,""cx"":476,""cy"":287.6,""angle_rad"":-0.46,""angle_deg"":333.7},{""word"":""refrigerator"",""x"":145.8,""y"":439.2,""cx"":185,""cy"":456.6,""angle_rad"":2.568,""angle_deg"":147.1},{""word"":""rabbit"",""x"":566.5,""y"":400.2,""cx"":589,""cy"":417.6,""angle_rad"":0.276,""angle_deg"":15.8},{""word"":""agreement"",""x"":522.5,""y"":134.2,""cx"":561,""cy"":151.6,""angle_rad"":-0.755,""angle_deg"":316.8},{""word"":""lips"",""x"":117.5,""y"":112.2,""cx"":133,""cy"":129.6,""angle_rad"":-2.348,""angle_deg"":225.4},{""word"":""scissors"",""x"":154.7,""y"":310.2,""cx"":185,""cy"":327.6,""angle_rad"":-3.007,""angle_deg"":187.7},{""word"":""giraffe"",""x"":620.7,""y"":400.2,""cx"":645,""cy"":417.6,""angle_rad"":0.225,""angle_deg"":12.9},{""word"":""system"",""x"":465.8,""y"":129.2,""cx"":493,""cy"":146.6,""angle_rad"":-0.958,""angle_deg"":305.1},{""word"":""fault"",""x"":322.8,""y"":220.2,""cx"":341,""cy"":237.6,""angle_rad"":-1.651,""angle_deg"":265.4},{""word"":""friendship"",""x"":566.6,""y"":177.2,""cx"":602,""cy"":194.6,""angle_rad"":-0.553,""angle_deg"":328.3},{""word"":""method"",""x"":500.6,""y"":81.2,""cx"":529,""cy"":98.6,""angle_rad"":-0.952,""angle_deg"":305.5},{""word"":""ant"",""x"":615.3,""y"":425.2,""cx"":630,""cy"":442.6,""angle_rad"":0.319,""angle_deg"":18.3},{""word"":""depressed"",""x"":316.3,""y"":191.2,""cx"":354,""cy"":208.6,""angle_rad"":-1.543,""angle_deg"":271.6},{""word"":""sofa"",""x"":101.8,""y"":395.2,""cx"":120,""cy"":412.6,""angle_rad"":2.876,""angle_deg"":164.8},{""word"":""violence"",""x"":278.3,""y"":149.2,""cx"":309,""cy"":166.6,""angle_rad"":-1.791,""angle_deg"":257.4},{""word"":""chopsticks"",""x"":83.3,""y"":310.2,""cx"":121,""cy"":327.6,""angle_rad"":-3.044,""angle_deg"":185.6},{""word"":""concept"",""x"":374.5,""y"":394.2,""cx"":404,""cy"":411.6,""angle_rad"":0.851,""angle_deg"":48.8},{""word"":""sparrow"",""x"":515.1,""y"":433.2,""cx"":545,""cy"":450.6,""angle_rad"":0.476,""angle_deg"":27.3},{""word"":""chair"",""x"":61.8,""y"":351.2,""cx"":82,""cy"":368.6,""angle_rad"":3.072,""angle_deg"":176},{""word"":""business"",""x"":452.4,""y"":46.2,""cx"":485,""cy"":63.6,""angle_rad"":-1.13,""angle_deg"":295.2},{""word"":""magic power"",""x"":290.3,""y"":402.2,""cx"":335,""cy"":419.6,""angle_rad"":1.783,""angle_deg"":102.2},{""word"":""result"",""x"":515.9,""y"":109.2,""cx"":538,""cy"":126.6,""angle_rad"":-0.871,""angle_deg"":310.1},{""word"":""hostility"",""x"":332.7,""y"":129.2,""cx"":361,""cy"":146.6,""angle_rad"":-1.517,""angle_deg"":273.1},{""word"":""dispute"",""x"":240.4,""y"":177.2,""cx"":268,""cy"":194.6,""angle_rad"":-2.056,""angle_deg"":242.2},{""word"":""relationship"",""x"":479.2,""y"":175.2,""cx"":520,""cy"":192.6,""angle_rad"":-0.747,""angle_deg"":317.2},{""word"":""pencil"",""x"":116.7,""y"":261.2,""cx"":140,""cy"":278.6,""angle_rad"":-2.814,""angle_deg"":198.8},{""word"":""anger"",""x"":445.1,""y"":180.2,""cx"":468,""cy"":197.6,""angle_rad"":-0.912,""angle_deg"":307.8},{""word"":""team"",""x"":390.4,""y"":503.2,""cx"":411,""cy"":520.6,""angle_rad"":1.227,""angle_deg"":70.3},{""word"":""washing machine"",""x"":106.9,""y"":467.2,""cx"":166,""cy"":484.6,""angle_rad"":2.51,""angle_deg"":143.8},{""word"":""thigh"",""x"":175.8,""y"":132.2,""cx"":196,""cy"":149.6,""angle_rad"":-2.226,""angle_deg"":232.5},{""word"":""charity"",""x"":372.4,""y"":455.2,""cx"":398,""cy"":472.6,""angle_rad"":1.198,""angle_deg"":68.6},{""word"":""finger"",""x"":144.5,""y"":37.2,""cx"":167,""cy"":54.6,""angle_rad"":-2.125,""angle_deg"":238.2},{""word"":""characteristic"",""x"":516.8,""y"":237.2,""cx"":563,""cy"":254.6,""angle_rad"":-0.421,""angle_deg"":335.9},{""word"":""cat"",""x"":574.7,""y"":428.2,""cx"":589,""cy"":445.6,""angle_rad"":0.381,""angle_deg"":21.8},{""word"":""eye"",""x"":254.7,""y"":75.2,""cx"":271,""cy"":92.6,""angle_rad"":-1.869,""angle_deg"":252.9},{""word"":""bed"",""x"":31.3,""y"":402.2,""cx"":48,""cy"":419.6,""angle_rad"":2.915,""angle_deg"":167},{""word"":""computer mouse"",""x"":125.9,""y"":348.2,""cx"":183,""cy"":365.6,""angle_rad"":3.048,""angle_deg"":174.7},{""word"":""microwave"",""x"":48.5,""y"":478.2,""cx"":87,""cy"":495.6,""angle_rad"":2.636,""angle_deg"":151},{""word"":""reason"",""x"":481.6,""y"":205.2,""cx"":508,""cy"":222.6,""angle_rad"":-0.679,""angle_deg"":321.1},{""word"":""hammer"",""x"":164.3,""y"":388.2,""cx"":195,""cy"":405.6,""angle_rad"":2.797,""angle_deg"":160.3},{""word"":""spoon"",""x"":100.9,""y"":364.2,""cx"":125,""cy"":381.6,""angle_rad"":3.002,""angle_deg"":172},{""word"":""fate"",""x"":326.3,""y"":437.2,""cx"":343,""cy"":454.6,""angle_rad"":1.638,""angle_deg"":93.8},{""word"":""arm"",""x"":197.9,""y"":44.2,""cx"":215,""cy"":61.6,""angle_rad"":-2.009,""angle_deg"":244.9},{""word"":""rat"",""x"":524.8,""y"":373.2,""cx"":538,""cy"":390.6,""angle_rad"":0.213,""angle_deg"":12.2},{""word"":""excited"",""x"":357.8,""y"":215.2,""cx"":385,""cy"":232.6,""angle_rad"":-1.281,""angle_deg"":286.6},{""word"":""ear"",""x"":170.9,""y"":84.2,""cx"":186,""cy"":101.6,""angle_rad"":-2.154,""angle_deg"":236.6},{""word"":""society"",""x"":331.2,""y"":484.2,""cx"":358,""cy"":501.6,""angle_rad"":1.518,""angle_deg"":87},{""word"":""toothbrush"",""x"":12.9,""y"":299.2,""cx"":51,""cy"":316.6,""angle_rad"":-3.03,""angle_deg"":186.4},{""word"":""process"",""x"":393.5,""y"":133.2,""cx"":423,""cy"":150.6,""angle_rad"":-1.22,""angle_deg"":290.1},{""word"":""splendor"",""x"":367.1,""y"":231.2,""cx"":399,""cy"":248.6,""angle_rad"":-1.121,""angle_deg"":295.8},{""word"":""air conditioner"",""x"":50,""y"":442.2,""cx"":99,""cy"":459.6,""angle_rad"":2.73,""angle_deg"":156.4},{""word"":""tortoise"",""x"":489,""y"":405.2,""cx"":517,""cy"":422.6,""angle_rad"":0.41,""angle_deg"":23.5},{""word"":""status"",""x"":415.3,""y"":115.2,""cx"":439,""cy"":132.6,""angle_rad"":-1.182,""angle_deg"":292.3},{""word"":""trauma"",""x"":382.2,""y"":155.2,""cx"":409,""cy"":172.6,""angle_rad"":-1.25,""angle_deg"":288.4},{""word"":""death"",""x"":392.5,""y"":189.2,""cx"":415,""cy"":206.6,""angle_rad"":-1.145,""angle_deg"":294.4},{""word"":""happy"",""x"":413.9,""y"":241.2,""cx"":438,""cy"":258.6,""angle_rad"":-0.804,""angle_deg"":313.9},{""word"":""identity"",""x"":602.8,""y"":211.2,""cx"":630,""cy"":228.6,""angle_rad"":-0.409,""angle_deg"":336.6},{""word"":""marriage"",""x"":536.4,""y"":207.2,""cx"":569,""cy"":224.6,""angle_rad"":-0.52,""angle_deg"":330.2},{""word"":""error"",""x"":440.2,""y"":21.2,""cx"":460,""cy"":38.6,""angle_rad"":-1.231,""angle_deg"":289.5},{""word"":""ankle"",""x"":247.3,""y"":34.2,""cx"":269,""cy"":51.6,""angle_rad"":-1.836,""angle_deg"":254.8},{""word"":""tiger"",""x"":477.4,""y"":381.2,""cx"":496,""cy"":398.6,""angle_rad"":0.321,""angle_deg"":18.4},{""word"":""apathy"",""x"":414,""y"":210.2,""cx"":440,""cy"":227.6,""angle_rad"":-0.937,""angle_deg"":306.3},{""word"":""disease"",""x"":407.9,""y"":196.2,""cx"":437,""cy"":213.6,""angle_rad"":-1.003,""angle_deg"":302.5},{""word"":""broom"",""x"":11.2,""y"":259.2,""cx"":36,""cy"":276.6,""angle_rad"":-2.912,""angle_deg"":193.2},{""word"":""sad"",""x"":432.7,""y"":164.2,""cx"":449,""cy"":181.6,""angle_rad"":-1.039,""angle_deg"":300.5},{""word"":""key"",""x"":111.1,""y"":268.2,""cx"":127,""cy"":285.6,""angle_rad"":-2.86,""angle_deg"":196.1},{""word"":""heaven"",""x"":293,""y"":456.2,""cx"":321,""cy"":473.6,""angle_rad"":1.801,""angle_deg"":103.2},{""word"":""obligation"",""x"":607,""y"":244.2,""cx"":642,""cy"":261.6,""angle_rad"":-0.294,""angle_deg"":343.2},{""word"":""data"",""x"":388.4,""y"":46.2,""cx"":407,""cy"":63.6,""angle_rad"":-1.374,""angle_deg"":281.3},{""word"":""loving heart"",""x"":447.8,""y"":225.2,""cx"":489,""cy"":242.6,""angle_rad"":-0.658,""angle_deg"":322.3},{""word"":""content"",""x"":391,""y"":273.2,""cx"":419,""cy"":290.6,""angle_rad"":-0.711,""angle_deg"":319.3},{""word"":""phenomenon"",""x"":309.1,""y"":522.2,""cx"":355,""cy"":539.6,""angle_rad"":1.544,""angle_deg"":88.5},{""word"":""cabinet"",""x"":130.4,""y"":515.2,""cx"":158,""cy"":532.6,""angle_rad"":2.381,""angle_deg"":136.4},{""word"":""miracle"",""x"":349.4,""y"":424.2,""cx"":377,""cy"":441.6,""angle_rad"":1.284,""angle_deg"":73.6},{""word"":""fear"",""x"":352.9,""y"":159.2,""cx"":370,""cy"":176.6,""angle_rad"":-1.456,""angle_deg"":276.6},{""word"":""knee"",""x"":141.8,""y"":83.2,""cx"":162,""cy"":100.6,""angle_rad"":-2.217,""angle_deg"":233},{""word"":""comfortable"",""x"":374.4,""y"":76.2,""cx"":416,""cy"":93.6,""angle_rad"":-1.319,""angle_deg"":284.4},{""word"":""debt"",""x"":409.4,""y"":26.2,""cx"":428,""cy"":43.6,""angle_rad"":-1.322,""angle_deg"":284.3},{""word"":""elephant"",""x"":556.1,""y"":361.2,""cx"":588,""cy"":378.6,""angle_rad"":0.12,""angle_deg"":6.9},{""word"":""effect"",""x"":443,""y"":82.2,""cx"":465,""cy"":99.6,""angle_rad"":-1.14,""angle_deg"":294.7},{""word"":""discipline"",""x"":529.2,""y"":269.2,""cx"":563,""cy"":286.6,""angle_rad"":-0.289,""angle_deg"":343.4},{""word"":""television"",""x"":-16.2,""y"":349.2,""cx"":18,""cy"":366.6,""angle_rad"":3.092,""angle_deg"":177.1},{""word"":""shoulder"",""x"":197.1,""y"":77.2,""cx"":229,""cy"":94.6,""angle_rad"":-2.013,""angle_deg"":244.6},{""word"":""nose"",""x"":141.8,""y"":120.2,""cx"":162,""cy"":137.6,""angle_rad"":-2.295,""angle_deg"":228.5},{""word"":""ax"",""x"":192.6,""y"":257.2,""cx"":205,""cy"":274.6,""angle_rad"":-2.662,""angle_deg"":207.5},{""word"":""scenery"",""x"":202.5,""y"":308.2,""cx"":232,""cy"":325.6,""angle_rad"":-2.938,""angle_deg"":191.7},{""word"":""panda"",""x"":632.5,""y"":370.2,""cx"":657,""cy"":387.6,""angle_rad"":0.122,""angle_deg"":7},{""word"":""fraud"",""x"":422,""y"":49.2,""cx"":443,""cy"":66.6,""angle_rad"":-1.254,""angle_deg"":288.2},{""word"":""table"",""x"":84.8,""y"":262.2,""cx"":105,""cy"":279.6,""angle_rad"":-2.862,""angle_deg"":196}],""n_words"":89,""words"":[""proud"",""refrigerator"",""rabbit"",""agreement"",""lips"",""scissors"",""giraffe"",""system"",""fault"",""friendship"",""method"",""ant"",""depressed"",""sofa"",""violence"",""chopsticks"",""concept"",""sparrow"",""chair"",""business"",""magic power"",""result"",""hostility"",""dispute"",""relationship"",""pencil"",""anger"",""team"",""washing machine"",""thigh"",""charity"",""finger"",""characteristic"",""cat"",""eye"",""bed"",""computer mouse"",""microwave"",""reason"",""hammer"",""spoon"",""fate"",""arm"",""rat"",""excited"",""ear"",""society"",""toothbrush"",""process"",""splendor"",""air conditioner"",""tortoise"",""status"",""trauma"",""death"",""happy"",""identity"",""marriage"",""error"",""ankle"",""tiger"",""apathy"",""disease"",""broom"",""sad"",""key"",""heaven"",""obligation"",""data"",""loving heart"",""content"",""phenomenon"",""cabinet"",""miracle"",""fear"",""knee"",""comfortable"",""debt"",""elephant"",""effect"",""discipline"",""television"",""shoulder"",""nose"",""ax"",""scenery"",""panda"",""fraud"",""table""],""distance_matrix"":[[0,0.5154922674628891,0.25267557281795433,0.233685619455127,0.581292411970561,0.447050104020792,0.31822302442522354,0.20431640905748555,0.20742135462718522,0.22764895117015888,0.29114379753961983,0.3266727156866883,0.20963344738956885,0.5807583593146576,0.3070429918992809,0.5486619086422954,0.20650265237293958,0.26028469667175014,0.6206484841303471,0.3357660663284491,0.28611109195157974,0.253121064920872,0.2682007013526939,0.34162743466499645,0.14459687480256178,0.5148619381204111,0.12165397001153232,0.3641103411607064,0.5647463164458085,0.47652712564314886,0.29831214679245394,0.5962676456612898,0.125963412415965,0.28787872057364533,0.42976255234975186,0.6936898964107946,0.4621986860421789,0.6828504533761656,0.09300741752304698,0.4647039435413878,0.5584575549259503,0.3186617150237351,0.529467177555435,0.16943713307318045,0.14721257152847342,0.5283051049849689,0.3680783065926855,0.6586440886246246,0.21211350193842726,0.11518789340011104,0.6400759524239292,0.20282447298747935,0.2320493233108987,0.19003355219014545,0.13932574817928606,0.053571836380909996,0.24094522473423288,0.1568124669779019,0.3762967789110048,0.47934070584164423,0.15754449802538895,0.08904189381125233,0.11092358235600983,0.681281850251498,0.1521003054348493,0.5354773887959069,0.3644640342686052,0.24591889366664865,0.3520944806876555,0.05203347138868351,0.06841474211367234,0.4243438837424299,0.6193584643049652,0.2700021335082068,0.2226544488795092,0.5618118062172079,0.30198475158495613,0.3749575890835453,0.20797636476438716,0.27839384377756593,0.11629562835459221,0.7206815817498771,0.4786088049602863,0.5338498994227978,0.41117222718324375,0.372181376735274,0.3079378349918799,0.3345972971239871,0.570804674199093],[0.5154922674628891,0,0.6264691630353207,0.751698457360826,0.5068434535071545,0.1834835139436847,0.7157008699936589,0.676252949743396,0.40728341316579225,0.765020478771474,0.7714382289104902,0.689413803687145,0.4572449210642615,0.10267428560348578,0.4817076138083341,0.20748802643666645,0.3347977243148441,0.5531474464982996,0.19384025528900067,0.7681266543850853,0.22427526896608413,0.750223192482163,0.5474312336185746,0.41680565829107113,0.6594980002056324,0.2708398926026369,0.590869690494599,0.3528956841464614,0.031230687136219456,0.4685863345417124,0.31883778261607354,0.6209089610815245,0.662804096461181,0.6237039459438869,0.5755007044247402,0.20413609046749193,0.12272131464979148,0.14584533419968643,0.6152321306387438,0.060242702099728325,0.1307607864435463,0.22990174942559286,0.610885107121737,0.5516546730531444,0.45754071026945353,0.5450700565321753,0.2630909638844107,0.28714893728006485,0.5973209639685492,0.4545584894842978,0.11477019501230303,0.5110475580041139,0.6357743597821811,0.5557986389325935,0.5205980743694797,0.4910986297741105,0.7770721224007209,0.6948891278916838,0.7776159041573208,0.6388547524901529,0.4832499039322638,0.5254416676042569,0.5371892751920829,0.35094594763003134,0.5870018465610203,0.26598960352162815,0.19637636450330193,0.7720406076272404,0.6992497773185083,0.5718966299203035,0.4361136246559827,0.27976702426345745,0.10613260316838395,0.2852151675428536,0.5140235262122456,0.5478552081433455,0.6654903447457635,0.743754729046286,0.6338303279835025,0.7029903043386831,0.6402130036710972,0.2806115654921064,0.5605298978784099,0.4887951742658142,0.2700327188905486,0.19976464233962316,0.7402861547897027,0.7252443367530966,0.287862247222688],[0.25267557281795433,0.6264691630353207,0,0.4050252870677573,0.839987662934298,0.6393091009158476,0.0666885886808909,0.43707458236853547,0.4673713319911195,0.33448271683483966,0.49641966415430383,0.05392246947119456,0.4802598080925956,0.7275025190402299,0.5787195300846162,0.7395798037555532,0.27323524899239526,0.06508865819783893,0.7920368266639756,0.567403956631213,0.38348742200773883,0.4497683792293547,0.5437141360731091,0.6024381591596133,0.3536238075744115,0.7290972529136556,0.37880249714777414,0.30612237684845417,0.6622999529667655,0.7381499996315224,0.29509652549414367,0.8676848425817932,0.24117795901574546,0.02189053515543575,0.7045754359380344,0.842660787656167,0.6319704327226566,0.7898949597751763,0.31492415846180616,0.6077573972643122,0.7216912589854897,0.3751023228636033,0.8032083405264653,0.06941831357042058,0.4177012527807283,0.7964459214273755,0.37035331145483663,0.852891856001309,0.480104620637529,0.3839312410903793,0.7639330229711437,0.09256490804022677,0.4923719460333972,0.463495031082699,0.4146581126525127,0.3279189689251915,0.28651258431805815,0.2875325966320505,0.617628402063093,0.7549220148500531,0.128959514691459,0.3634052965578148,0.38411680900460016,0.8901609075732716,0.41611527198361986,0.7458386839306288,0.41513463164855385,0.2406928640481543,0.6139371684390105,0.29956877997310033,0.31659833331138876,0.3993044054593629,0.6907870211099143,0.3184443149387566,0.498095294502051,0.8279456812509742,0.5647376045260579,0.6285550197368523,0.039510279027930646,0.5231822953463444,0.19077156851036003,0.8942895235920263,0.7509181742985895,0.7940430560162791,0.6326833980049025,0.5669289388234552,0.09600510160577784,0.5853123204053223,0.7823201845604646],[0.233685619455127,0.751698457360826,0.4050252870677573,0,0.6627667652103119,0.6413083956224287,0.42338992814654125,0.08618146289176674,0.3550148919382564,0.0721504363398004,0.07614614058029712,0.45558137771918733,0.32060467286561717,0.796972170573654,0.3809885864912654,0.7352907427749801,0.46303169517957554,0.45615612651868054,0.8184338428307221,0.16312525423765115,0.537981651581234,0.0314430409039305,0.29717855827612494,0.45089346477841513,0.06986086053741615,0.6806436062537077,0.14309249769081495,0.6143811650032016,0.803676092125953,0.5610758746205194,0.5530896763567645,0.6262878103395744,0.1419163850678807,0.44960046882515686,0.45057730468031143,0.9031095230540467,0.6720592637476601,0.9141273887631316,0.11884668358604762,0.6898646542226449,0.7657722047656351,0.5743039060498404,0.5490894461388407,0.36124242083605046,0.287070496845304,0.5823760200889981,0.6244398559438005,0.8346985011551654,0.1978886850646326,0.27919138763843165,0.8654617162785295,0.4163513488500903,0.1746369291826273,0.22259189594466147,0.22670727558083614,0.23792531648751508,0.14251322402918015,0.09458665310405807,0.21957565699944198,0.4709088934474236,0.3857298865940506,0.20570345741762283,0.19890078743143397,0.8405362908103652,0.16260164418065287,0.7038061983156932,0.6196274320185136,0.1956514184679106,0.2608716241719259,0.16274647355801408,0.2950119943771506,0.6799337664977504,0.8643978299953033,0.5265841747049942,0.2852857745364343,0.6206584279338576,0.22695327223458273,0.2512040473157973,0.3428367300320544,0.15177089587495537,0.19310679821540402,0.9114765398699383,0.5160411229670844,0.6158575888742746,0.5797058255045702,0.5725525617162187,0.38472010626363623,0.20976550416937245,0.7348584746320072],[0.581292411970561,0.5068434535071545,0.839987662934298,0.6627667652103119,0,0.30462134690829334,0.9169587036962258,0.5537092922327775,0.3520637622626404,0.7346321109290471,0.6126033175728811,0.9168088962203136,0.35258904225615884,0.43035027434398043,0.26483543093390666,0.2944599769110285,0.6028371364432377,0.812717349103492,0.3680848535208759,0.550082070226332,0.5425360731402268,0.6250821040275476,0.34288921740335626,0.2168152507007252,0.6044162266564025,0.21574505442320602,0.5239996465217307,0.7446673639272051,0.5475165024836169,0.0828453450359737,0.6705733015098239,0.10884168113650969,0.69354163777007,0.8647179949259536,0.20568106214172785,0.46059189715025334,0.3630572654311121,0.5672738527906559,0.5952415203642503,0.42967772177698843,0.3804780779723284,0.5961746197695184,0.14752826321411985,0.7479634950046791,0.41265280306380564,0.0729949359223598,0.6726649042152563,0.3037801082966794,0.44228722999369807,0.4433205698702834,0.5078644459505479,0.7498854043735048,0.46669473726799837,0.42400035064268876,0.4447896817833797,0.5069231761579402,0.7878800449098486,0.6910290794121684,0.5201504634371725,0.2279297440008676,0.6999530431518798,0.4926897837586366,0.48169746824146337,0.25887108277718807,0.48947006270610866,0.22686617612801346,0.6042978817789593,0.8183958107737274,0.42801182075747085,0.5746724069925222,0.5021939560307508,0.7230513833527185,0.6231039158819933,0.6107942270417768,0.36366032024160533,0.04270913988158135,0.43352155164578515,0.46871912462759074,0.8069398864746438,0.5104335737396672,0.7094850170578417,0.3985580239300135,0.1405753168323443,0.025223538997256593,0.23610833022548036,0.3284111320845611,0.9115669401419892,0.48320944411087025,0.2212274043431087],[0.447050104020792,0.1834835139436847,0.6393091009158476,0.6413083956224287,0.30462134690829334,0,0.7270145628268077,0.5486619086422954,0.26523991720980017,0.6773760410461915,0.6382665364435599,0.7124515827255063,0.3077869274809604,0.1482925194639645,0.30222496771385876,0.07948803254530666,0.35236742284148787,0.58575827261928,0.154461210826704,0.6164564122050823,0.25862569827900167,0.6270070095675596,0.38101393654729837,0.22791953885989757,0.5549531754616581,0.08353296001555895,0.47535974410569015,0.4525841767800102,0.230114292034694,0.26242338601434334,0.38934710039666465,0.4148218831955827,0.5930407831187632,0.6504712719947283,0.37746209835439487,0.24111979467819558,0.03797398861910842,0.28826970634936067,0.5204897392342003,0.10290847573607054,0.10624166095258603,0.3014209245497483,0.40537208675461817,0.5507919481635538,0.33134252668024106,0.3386803104516108,0.36966273958874063,0.19220431018010123,0.4516357467374288,0.34206254122462115,0.22915136127095842,0.5295876518635034,0.4894225996359034,0.41291131329285136,0.39289283702304784,0.39665880791783587,0.7064677823022538,0.6131830715111835,0.6153544639441507,0.43867173277917215,0.4874728134454281,0.41532451005063714,0.41961138814225213,0.22905994542234046,0.4597626323904227,0.09166359177329382,0.29632572526924167,0.7158464140563606,0.5289641451263575,0.4821259408376117,0.35612746026304004,0.4118616312328772,0.30791075409736685,0.33434660501116936,0.359157756943576,0.34213617727349954,0.5031680174973143,0.5751006109279196,0.6270070095675596,0.5548069752661436,0.5854133193483111,0.25147006410186173,0.35646498034651086,0.28329844483267114,0.06772540147631403,0.05235726568916319,0.7383366481198024,0.5642582498781085,0.12635836453834284],[0.31822302442522354,0.7157008699936589,0.0666885886808909,0.42338992814654125,0.9169587036962258,0.7270145628268077,0,0.47421794227605507,0.5423368489221754,0.340449339972837,0.5201669609119246,0.023738070038843796,0.5503098626905842,0.8170940779514337,0.6481045469594323,0.8277320521256737,0.3627952064170332,0.1455720746333806,0.8812584820606393,0.5986320128153952,0.47308125340083185,0.4731483413263188,0.6051482444525506,0.6778876024055219,0.3888997942498245,0.8151048514053965,0.42885403857313226,0.3861399844886312,0.7509198282723715,0.8136970338364019,0.38195393407396244,0.9373880308938044,0.2690217093412352,0.07726397457257243,0.7698269570059307,0.9322563398980839,0.7209276770912152,0.878533696508978,0.35837978302974466,0.6973171423876955,0.8110477090777863,0.4638843131058106,0.8702435532625694,0.15365117162057132,0.48763077509065134,0.8686672912956269,0.4555359030105107,0.9410914249057376,0.5326463121526063,0.4546040572746964,0.8532352165046134,0.18203976711524264,0.5397154918993898,0.5213534649209532,0.47646818063514484,0.3947019218038154,0.28043018755166194,0.30895755830198923,0.6518497667442843,0.8166094097270256,0.2174124789182059,0.42428664655226556,0.443218986449043,0.977224370546203,0.4679140223573254,0.832341752619753,0.5031558528604335,0.2267277845607369,0.6595711429132309,0.3521763841884172,0.3918572948530887,0.48045817480789516,0.777687847595,0.40758974603866543,0.5621203588977035,0.9014286928019777,0.6118778805504571,0.6688936161677357,0.08759197898791793,0.5617220546641958,0.22435810155328284,0.9835619397351466,0.8197335059534339,0.8703194992288794,0.7173071970525706,0.65405972915114,0.02878781761713964,0.6250248216053627,0.8688208805431517],[0.20431640905748555,0.676252949743396,0.43707458236853547,0.08618146289176674,0.5537092922327775,0.5486619086422954,0.47421794227605507,0,0.26053316047750735,0.1676454783402017,0.07308831061309878,0.49893722359876286,0.22060274211118444,0.7100719569275172,0.2732136388837578,0.6389785208370713,0.4243467454096592,0.47053552861004316,0.7244586973692493,0.11050212636871085,0.4817507301920519,0.05587992073166961,0.18828330539284063,0.3451773440946705,0.06243043995717458,0.5800625346543534,0.06796515286964473,0.5896799357275977,0.7295243258515105,0.4522960758490633,0.5203648915327889,0.5190416269893204,0.18300546166795764,0.47952415131991233,0.34263370795235193,0.8123634619267555,0.5843519926438712,0.8336711165322408,0.10103289102556093,0.6087814268198667,0.6756760702177255,0.5252035401286123,0.44219918016652415,0.37405906182587007,0.1979756184114362,0.47351974106116795,0.5847502073883986,0.7347638831013004,0.08927031562023127,0.19901616237073214,0.7821691703369614,0.42033964356513326,0.06634508796427095,0.11777723567685935,0.1345373475354773,0.17672508589409983,0.23254582198280904,0.15133071437498713,0.15777132129524934,0.3663756571886041,0.38030353253408045,0.13196376899181464,0.11680040489604553,0.7372682654261716,0.06704500709448966,0.6034749715058942,0.5682294477934146,0.27822813130885377,0.1683159694924956,0.1308190777255461,0.23612315386070049,0.6435033808401125,0.7948134924551873,0.4842502559583734,0.17965277971070007,0.5117589921935602,0.12664961531852545,0.17195587015020578,0.3781902992226358,0.06462198642089402,0.22752121398646022,0.8146144474928863,0.40758974603866543,0.5068651972380663,0.4813320918807903,0.48344457160600507,0.44348525271165545,0.12802962152712552,0.6333234292923918],[0.20742135462718522,0.40728341316579225,0.4673713319911195,0.3550148919382564,0.3520637622626404,0.26523991720980017,0.5423368489221754,0.26053316047750735,0,0.4003035816916469,0.3511649877079994,0.5439873857943157,0.027939067809437116,0.4281083159816062,0.10169204360506294,0.35739161600822034,0.2731660910926609,0.4489634917999699,0.44146386362671103,0.3384501609605181,0.26843802145830864,0.33886786244260897,0.12616101927877196,0.11264351725198894,0.2723912829121776,0.30530058464436893,0.1901236910678657,0.4435181823025,0.46140917148443983,0.24846351979208817,0.3639780364051889,0.3811026492173069,0.33331692284063047,0.49495614556204925,0.2347011635474904,0.5289479106396118,0.30242566801305426,0.556346865586205,0.24535650466985406,0.3331983364774824,0.39243394198514636,0.3242921420421914,0.3234025995888126,0.376171721434763,0.047942490640032684,0.3070080787590285,0.4003489427486087,0.45798006069462655,0.16836950725174787,0.0715425994903475,0.5025131600173003,0.38562651457778724,0.20688728377159762,0.1275965398651317,0.10545637099613052,0.13588104820011895,0.4396965486086119,0.34246910731419833,0.34806250828348073,0.2961974031884308,0.334654573499649,0.1362915944682116,0.13541285863643077,0.46904443893772885,0.17173242549778966,0.3279846305643897,0.35602952320601405,0.46019996214643544,0.27483434320194944,0.21401728385018615,0.127970252548947,0.46079039161589347,0.5325103709105448,0.3085214698782937,0.0851559129369321,0.3377339897040383,0.23685833006148221,0.31726118121126734,0.432131387733564,0.2739216299486969,0.3408260416745614,0.5335601718833771,0.2677034599616841,0.3051406610255212,0.2025918852714256,0.20122555467031442,0.5367389253612708,0.29565547539023174,0.36060886727394936],[0.22764895117015888,0.765020478771474,0.33448271683483966,0.0721504363398004,0.7346321109290471,0.6773760410461915,0.340449339972837,0.1676454783402017,0.4003035816916469,0,0.17004834309436095,0.3763961556322429,0.3745069691262881,0.8234662926496764,0.44800776970314915,0.7755363425097913,0.44708278384251743,0.3967045629836352,0.8543972603721677,0.258106960680396,0.5357271747020413,0.126495494455099,0.3702491519192117,0.5114692629693385,0.1083257981331821,0.7283786786994193,0.191536888636807,0.5815973730831835,0.8148757264278331,0.6306420527188802,0.5287785796660017,0.7082186998740108,0.0915853671583706,0.37921329416190264,0.5312438272546197,0.9337666295082876,0.7011419011572377,0.9314694546963931,0.13401622118764445,0.710569439556658,0.7968098033190569,0.5642495307166894,0.6318101528961473,0.30697316192372087,0.32956047147191914,0.6590927600988202,0.6045121104421921,0.880004854566853,0.27200528541560665,0.31317310353516703,0.8867117078946237,0.36640195877305104,0.25610953244652956,0.28787872057364533,0.27689486509979144,0.2587529613713909,0.04756210947178124,0.04844651128592386,0.3145981867693923,0.5569166480292086,0.3449095055756561,0.24160410668740603,0.24282547452100559,0.8921072581499511,0.2227638781905511,0.7508801319258408,0.6106366706878632,0.10193832859974074,0.3529433615110199,0.1735193815703334,0.30772112572835036,0.6559496032281296,0.8698766289497504,0.5116560485549617,0.34939187030773516,0.6969474171781374,0.3157225968503777,0.34569160405587346,0.2723305976532917,0.24382541405742966,0.13696549011712367,0.951133523554796,0.5949412222965492,0.6869443331157993,0.6250327229301923,0.6050748772612743,0.2981726602035272,0.3036703921593114,0.7838033875925584],[0.29114379753961983,0.7714382289104902,0.49641966415430383,0.07614614058029712,0.6126033175728811,0.6382665364435599,0.5201669609119246,0.07308831061309878,0.3511649877079994,0.17004834309436095,0,0.5507004723530283,0.3077985381958355,0.8020688302731319,0.34550752589793204,0.7256565100963865,0.5163283957554518,0.5408495043643857,0.8126009352354949,0.06704500709448966,0.5771773310351316,0.02414784881873024,0.2566365551938527,0.422025641138988,0.12817370620368623,0.6628656885822369,0.16313901354927882,0.6781614995842726,0.8248518484280732,0.5160814928514249,0.6111112409844661,0.5605298978784099,0.23254081166928112,0.5405065871263022,0.38998615422607086,0.9022923154363733,0.6763280006449579,0.9276356744242633,0.17830878692809243,0.7029127202572929,0.7662734982215277,0.6197230378543351,0.4829463763917191,0.4444940381698192,0.2918033219068497,0.5258896272570023,0.6775076210810643,0.8176393763275364,0.1659927173507144,0.2946696147702573,0.8753661811655614,0.495825376402384,0.1310187659622658,0.20265431039474283,0.22833760973751052,0.2715883613835719,0.2404791392244401,0.18859820844196679,0.12338773138388574,0.3998163998434634,0.45996676889997395,0.227837882779853,0.21271721567744803,0.8156957047389133,0.16152914791385406,0.6864465204948337,0.6631791627440238,0.29441964606041504,0.18015763512165636,0.21620582582092546,0.33112206794661186,0.7355962211988499,0.8905911418165146,0.5773394054700353,0.26044283521108136,0.5642756878125305,0.1580615231325604,0.1610914432689561,0.43491028995616327,0.07950053123939231,0.28275877122839255,0.9002745528294565,0.4571142894624075,0.5675730487675261,0.5670135590284942,0.5751712351111509,0.4827945443038282,0.1239029954770577,0.714688198314697],[0.3266727156866883,0.689413803687145,0.05392246947119456,0.45558137771918733,0.9168088962203136,0.7124515827255063,0.023738070038843796,0.49893722359876286,0.5439873857943157,0.3763961556322429,0.5507004723530283,0,0.5560197605303762,0.7944675122654383,0.654407514155972,0.8119833641370221,0.34206254122462115,0.11368757146235874,0.861812086602163,0.6263292105254737,0.45050431467298446,0.5036616644358811,0.6170186751962088,0.6791466446492728,0.41408150354549583,0.8038030518416518,0.4470174219264255,0.34903760892985275,0.7224952688081607,0.8148894756935627,0.3513668017201716,0.9435789560939017,0.2964099086097908,0.04286499914689002,0.7792641842268152,0.9089788552685976,0.7027945649294007,0.8499832343339889,0.37957597509536667,0.6755752963640645,0.7909304274811589,0.4366737312829313,0.8784456630602041,0.14617114877959064,0.49336453922763085,0.8727920967778596,0.4223936920001575,0.9251333110427424,0.5497536216943979,0.45972285548957204,0.827090842602837,0.16069452563776676,0.5596539525804324,0.5353306734329617,0.4878713846150114,0.40256571037458083,0.31947760500310224,0.339274480879586,0.6783586393125398,0.82852311408615,0.2027450797460083,0.4361498711283474,0.4562442827465122,0.9638644421291733,0.4852612320067813,0.8201480641061256,0.4739526898725607,0.26731563767108135,0.6806436062537077,0.3686049839940984,0.3931513198479078,0.44364164756817803,0.7458653219361914,0.38187805574773026,0.5722064058416921,0.9044837365330158,0.6320818236407689,0.6926120893330364,0.09956817900096768,0.586063099037312,0.24872750863499254,0.9637710503866843,0.8265711984920251,0.8708351878306181,0.7082607123847308,0.6408091365477385,0.07512005389895146,0.6489585189918677,0.8566090631255694],[0.20963344738956885,0.4572449210642615,0.4802598080925956,0.32060467286561717,0.35258904225615884,0.3077869274809604,0.5503098626905842,0.22060274211118444,0.027939067809437116,0.3745069691262881,0.3077985381958355,0.5560197605303762,0,0.4737723403985018,0.07557596826210217,0.39568150840743377,0.3115851077955327,0.47034095582597174,0.48198146705038153,0.28973871229200215,0.31604371119845454,0.299390128229058,0.07691840013054614,0.1164977583025188,0.2439117711074411,0.33732918534735906,0.1603316753937764,0.4845328260522546,0.5113830322134533,0.24693108603414288,0.40530035813916054,0.3646754347598842,0.31948134313803006,0.5110811149092059,0.20530000619246042,0.5717782701419423,0.3485038602948988,0.6042529865008847,0.224497818657946,0.3821309282222568,0.43627531759277244,0.3710686628080642,0.3007770428095546,0.3911624036710714,0.039817102754946536,0.29576795097914554,0.44591579523775693,0.49174562938400046,0.12130826647552426,0.07342105278579629,0.5495591450200648,0.4074856768005016,0.159519639518647,0.08226281393019674,0.07474068374338838,0.13349335846103674,0.41983114688823664,0.3220287370879825,0.2976220930090821,0.26273272677724563,0.3565965318150835,0.11800449126718555,0.11012744690167471,0.4973725566095376,0.13510536157507166,0.360602192722558,0.4043488171516562,0.4456099351965561,0.2240939758379599,0.19982785984403412,0.14450515857383534,0.5066718883280864,0.5829403359098145,0.35168811130113825,0.03433333474003307,0.32954231490482255,0.18612081227243868,0.26641459568650233,0.43984592653655546,0.225993538838653,0.3340060983575507,0.5711387198350261,0.2477645955901952,0.30460962355975396,0.23782225056950018,0.24753752956627148,0.5401452763496898,0.24521810985035492,0.3913540011406058],[0.5807583593146576,0.10267428560348578,0.7275025190402299,0.796972170573654,0.43035027434398043,0.1482925194639645,0.8170940779514337,0.7100719569275172,0.4281083159816062,0.8234662926496764,0.8020688302731319,0.7944675122654383,0.4737723403985018,0,0.4734243384928937,0.11309598371955078,0.4314755555870287,0.659775525845957,0.07010886793381588,0.7850589596592596,0.321259804855783,0.787422128921521,0.5513694707968039,0.3986612610515373,0.7074743280259687,0.1938579694706274,0.6315579259157466,0.47370275952649366,0.11379060202441776,0.4150908018660693,0.4321145112094749,0.5547826049696752,0.7295923628928527,0.7293150733938074,0.5432079372682577,0.09283061675528877,0.1028474247041996,0.11999771350998595,0.668299484744086,0.09760877854495477,0.027331317851478847,0.3401498123822871,0.5588734940440087,0.6467890585103868,0.4896324031289923,0.4857521276427993,0.38362911903726105,0.16624324378736913,0.6179699951427008,0.4948795240683541,0.059453944153949355,0.6124663540290615,0.6561890014954929,0.5781235687777826,0.5527584971963726,0.5423911897629179,0.8445381396765542,0.7558905887968244,0.7857714843973377,0.6019303738647961,0.5790832019848619,0.568471892711036,0.5759240414724802,0.232841256745138,0.6202605558779838,0.18059206692093188,0.3131616785039653,0.8464968260110051,0.7000238632325358,0.6271074370574743,0.49376104257036457,0.4044686243256564,0.1784804542392929,0.3908841204526628,0.5271429042010288,0.4807733662034938,0.6733417137299303,0.7461000294649242,0.7278333297865651,0.722381935342201,0.7139729420309833,0.15611319253656356,0.5149285738601597,0.4221751985077527,0.2364046419246393,0.20399511686191407,0.837185705331796,0.7343938492003373,0.19123228419229937],[0.3070429918992809,0.4817076138083341,0.5787195300846162,0.3809885864912654,0.26483543093390666,0.30222496771385876,0.6481045469594323,0.2732136388837578,0.10169204360506294,0.44800776970314915,0.34550752589793204,0.654407514155972,0.07557596826210217,0.4734243384928937,0,0.3731035567749092,0.3975120813977064,0.5678807589165754,0.46325288785353264,0.30335671418031035,0.3840067365541483,0.34902384439993533,0.06623029356778293,0.056527056358031555,0.31723107978434906,0.3014682763763954,0.23627134358214016,0.566509998477999,0.5349453620195698,0.15991910785198515,0.4869584725591398,0.2664455602812871,0.4071733179924919,0.6095023204869707,0.11018515855153198,0.5586622605564943,0.35393300383343973,0.612095598675947,0.3078449769795178,0.4007479106230997,0.42985019391052404,0.44107232171505184,0.2025691809415612,0.4896124255441744,0.1381380222160774,0.19967265755382899,0.5187723331243393,0.4545692117085691,0.1612722093432573,0.17189017774078738,0.553842455988695,0.5048270716514812,0.1920793264684821,0.13737325869888134,0.15835832132264746,0.23059438578019728,0.5001620979295363,0.4032990678070375,0.2938019436298051,0.17189674797861282,0.4538422357466755,0.20829212438836905,0.19525284466205275,0.44799689807861925,0.20236473900008684,0.3249991953911115,0.4686462247076657,0.5311260232161535,0.2045584870687181,0.28969777232683364,0.24229513617977141,0.5783875673693728,0.6105457549653018,0.4303248598401123,0.07599096504018478,0.2348998207444843,0.18433134802320447,0.25090972808652157,0.5377191725306967,0.24872750863499254,0.42654482079739836,0.5420310842995297,0.14929138739345452,0.2168152507007252,0.21697536834235845,0.2597418356964493,0.6366539994859965,0.2446016239121522,0.3502057380137786],[0.5486619086422954,0.20748802643666645,0.7395798037555532,0.7352907427749801,0.2944599769110285,0.07948803254530666,0.8277320521256737,0.6389785208370713,0.35739161600822034,0.7755363425097913,0.7256565100963865,0.8119833641370221,0.39568150840743377,0.11309598371955078,0.3731035567749092,0,0.44939727161939197,0.6834305334858044,0.06762649577393486,0.6965134588823086,0.3497767043916865,0.7177237875561077,0.45803328801852994,0.2942582713731936,0.6510146519824347,0.06117640158352575,0.5699503867768932,0.5344311990968609,0.23839595727597224,0.2861276586491911,0.4773209241252528,0.420030570267268,0.6938416957644273,0.749293919634932,0.4231403603608409,0.16499408288822098,0.09343724381361752,0.25133008743304325,0.6186506407013161,0.14911291205882063,0.06372543020242619,0.38629014647831095,0.4284657360517157,0.6518345920650866,0.4259891830666216,0.3533347683624402,0.44749653174171455,0.09046197965108468,0.5371435709133925,0.4394834632827091,0.19119641988457053,0.6286414581228255,0.5739094438456064,0.5003675955136955,0.4857521276427993,0.4961460310837294,0.8067177629227676,0.7125612257311201,0.6898107827110942,0.4781543362574717,0.587725396469609,0.5119600342376189,0.5145643563733835,0.13568748222011548,0.5515098614786403,0.044971783269567585,0.37326835203670133,0.8173180282081166,0.5998169959180645,0.5813686666773344,0.45753271836099746,0.4822754403634589,0.31037762535932406,0.4254499847495711,0.4430047650545419,0.3461531317504832,0.5795273917252239,0.64620973031477,0.7287022923972919,0.6373812914836735,0.6872976403396046,0.15330287204088902,0.3879756874131447,0.28807633272064004,0.1360019072052379,0.15471359048568942,0.8400113945986445,0.6402535345278763,0.05804327242002297],[0.20650265237293958,0.3347977243148441,0.27323524899239526,0.46303169517957554,0.6028371364432377,0.35236742284148787,0.3627952064170332,0.4243467454096592,0.2731660910926609,0.44708278384251743,0.5163283957554518,0.34206254122462115,0.3115851077955327,0.4314755555870287,0.3975120813977064,0.44939727161939197,0,0.21115307023455082,0.49684338759105223,0.5487514717606439,0.0882272047440449,0.48095883022447683,0.406619439086513,0.38682777502808363,0.3735945091470329,0.4500471953807642,0.33446122894076724,0.15184415166104206,0.37538520582070223,0.5123116761030702,0.07515921532495029,0.6626734281898092,0.33459729712398706,0.27803681122889506,0.5300530845837894,0.5468115294210315,0.33825530453104924,0.5017745536308825,0.32223646299460107,0.31161571726471576,0.42604620320015396,0.09649918561613008,0.6134968843750512,0.19409991836514906,0.26508885694485484,0.583430251299014,0.13880422349469018,0.5619628204203271,0.3957793410131174,0.23800381557434463,0.47107733374696953,0.1587392064207677,0.42697176745636023,0.359559536298125,0.3055500658741897,0.22785319532026788,0.44235325642879897,0.3760947435057106,0.5805547863648778,0.5922340234049479,0.1257483244156592,0.27706131410871143,0.2982483890118656,0.6042346193244365,0.3520535222283942,0.46396844126776354,0.14284558854076554,0.427193619669644,0.5338889781039489,0.27975433820548734,0.17216593719788556,0.19637636450330193,0.41570985630905355,0.04166707129128331,0.3569909128985464,0.6075645721659152,0.486232494783583,0.5671176903130094,0.27617679500278003,0.4857219323613345,0.3006821299267069,0.598848193681746,0.5564219852539765,0.5619759502474807,0.36363383210681943,0.2847620670965127,0.38369207964433005,0.5325841058823145,0.5000152644982818],[0.26028469667175014,0.5531474464982996,0.06508865819783893,0.45615612651868054,0.812717349103492,0.58575827261928,0.1455720746333806,0.47053552861004316,0.4489634917999699,0.3967045629836352,0.5408495043643857,0.11368757146235874,0.47034095582597174,0.659775525845957,0.5678807589165754,0.6834305334858044,0.21115307023455082,0,0.7293882333091755,0.6036629271170018,0.31671894733537503,0.495590926421911,0.5456241261927309,0.5805547863648778,0.3918079188241971,0.6810782569080782,0.40020679518340624,0.2189731871368248,0.5859012447026473,0.7144539067820627,0.21490157612676752,0.8529722290351213,0.2919984712684786,0.047942490640032684,0.6983754977780959,0.7738032442170135,0.5720192688431306,0.7133891118435057,0.3466487177525817,0.5416775500548631,0.6580710869062764,0.30034179657967625,0.7932468015930614,0.07373940751040071,0.40973687788398816,0.7781481325926561,0.28720672279926496,0.7960193648353797,0.49524275772468274,0.3758573013460688,0.6908067474510662,0.04044649649359512,0.5133914706140112,0.47224447223121363,0.4194262434632577,0.3287606957211679,0.35742190411369257,0.3407099042647258,0.65014617440043,0.7533094361776892,0.09140636703244354,0.3714485711088756,0.39379068247775956,0.8377257093807158,0.43405962841977686,0.6960810187888835,0.3373611601230155,0.3169788756773576,0.6344536667095787,0.32172805487770767,0.30292884192244457,0.3127768088704918,0.610012119677241,0.24626622397811926,0.4972569237786682,0.8071912462767965,0.584413111335408,0.6546361233013546,0.11126742531680364,0.5530696776500742,0.24105676884948748,0.8308993975936021,0.7386862806759734,0.7684647429422078,0.5896297900909312,0.5163283957554518,0.18268821770697172,0.6127704536704973,0.7323562694240278],[0.6206484841303471,0.19384025528900067,0.7920368266639756,0.8184338428307221,0.3680848535208759,0.154461210826704,0.8812584820606393,0.7244586973692493,0.44146386362671103,0.8543972603721677,0.8126009352354949,0.861812086602163,0.48198146705038153,0.07010886793381588,0.46325288785353264,0.06762649577393486,0.49684338759105223,0.7293882333091755,0,0.7857050086536979,0.3900171510860369,0.8030348023973629,0.5475411831973401,0.3845944929899891,0.732320681463944,0.14839715126880246,0.6525531180005228,0.5569320994411593,0.20623470191660706,0.3721068613073005,0.5093477785316484,0.49755210559895596,0.767977784902015,0.7975589225655011,0.512285370763764,0.07515921532495029,0.13875672873370748,0.18044106547647507,0.6975801005666658,0.16732953115074925,0.04896480660356552,0.41675908405570256,0.5123834113672038,0.7075093742986981,0.5084645384026459,0.4355360831688432,0.4672695106582355,0.07395106267959645,0.6246296324374492,0.519393397184028,0.12520491732878564,0.6784042656102763,0.6617898304669958,0.5870522082446141,0.5695703080895708,0.573237829691131,0.8820140680377718,0.7896067456199808,0.7799069251971076,0.5659408045867731,0.6412004795173646,0.5926915942661308,0.5968461596887448,0.14165993432138146,0.6360968364558874,0.1281482894827033,0.3947509557007377,0.8892619467211033,0.6901842081466142,0.6587548759810751,0.5305227511868701,0.4924837082002908,0.26628627847418607,0.46330817029912635,0.5308810954368682,0.4245698990691728,0.6692931185111196,0.7365810154667389,0.7868153865179442,0.7259043888928735,0.7577618342590827,0.07953801817235773,0.4745782527628398,0.3682124967165797,0.22477184895819158,0.22674829185584508,0.8975546114118259,0.7301228408429564,0.12416430184908575],[0.3357660663284491,0.7681266543850853,0.567403956631213,0.16312525423765115,0.550082070226332,0.6164564122050823,0.5986320128153952,0.11050212636871085,0.3384501609605181,0.258106960680396,0.06704500709448966,0.6263292105254737,0.28973871229200215,0.7850589596592596,0.30335671418031035,0.6965134588823086,0.5487514717606439,0.6036629271170018,0.7857050086536979,0,0.5951628356684014,0.10881253415790591,0.21582548555713923,0.3826362001437556,0.19094520132042578,0.6274794743016282,0.19320157771498372,0.7177842687669188,0.8221860008171751,0.4595106566273588,0.6461045179359198,0.4860740991844485,0.3071787301185273,0.6105114056296296,0.3226070914908103,0.87889851771148,0.6604107848018229,0.9168769934879067,0.23412916885761714,0.6945038792489612,0.7455989003308154,0.6426424093163927,0.4090855632283587,0.5070970748625516,0.2912701099370333,0.45931959781503917,0.7067256884748356,0.780832652056278,0.14801568422396827,0.3034979065749059,0.861858378522347,0.5537448055744448,0.10977100368788077,0.1896906759095298,0.2318233221855203,0.2980131727217153,0.3285313338025846,0.26763298532283963,0.03365856632963642,0.3232103652592854,0.5133580582798203,0.2491794650394614,0.22907010437663516,0.7721951552963522,0.17447488793843405,0.6510564322969843,0.6835954067878209,0.381381333737471,0.10188705930803424,0.26355153444477514,0.355316183181351,0.7665507762280044,0.8918414545811818,0.6060666471486927,0.23504375154402474,0.4972495420869194,0.09747063875967099,0.07373940751040071,0.5073288510846613,0.04298165164915559,0.35507246050660973,0.8677495106683759,0.38966675104359266,0.5072588460322438,0.5380295692763303,0.5598121152614528,0.5639857148577878,0.04446076494796241,0.6764213454038315],[0.28611109195157974,0.22427526896608413,0.38348742200773883,0.537981651581234,0.5425360731402268,0.25862569827900167,0.47308125340083185,0.4817507301920519,0.26843802145830864,0.5357271747020413,0.5771773310351316,0.45050431467298446,0.31604371119845454,0.321259804855783,0.3840067365541483,0.3497767043916865,0.0882272047440449,0.31671894733537503,0.3900171510860369,0.5951628356684014,0,0.5473908386537373,0.41584989831121577,0.3526980991647938,0.4456126669732152,0.3620944022030869,0.3911407661286135,0.17932394784114858,0.2667903704278382,0.46295794191068634,0.10881253415790594,0.6199560175119307,0.4273784130173481,0.3855983176698641,0.5101959449044597,0.4362725302658959,0.23517272470678732,0.3920886666778611,0.39656118043010313,0.20219991462955086,0.318534290382917,0.03453421961484656,0.5811886053748553,0.3051757728879844,0.28678959986550856,0.5389506189098553,0.11334983583331852,0.46043304288613,0.4299180337918762,0.2692145523543884,0.36006116773775515,0.26831938557945034,0.4654907525652486,0.3896295229384776,0.34112149698034383,0.2828843617108261,0.5393627779859849,0.4644308865624438,0.6186346807491003,0.5752611083755794,0.23686325710114184,0.32721415636696577,0.3448677469397162,0.5073674706057857,0.3993044054593629,0.37295809221981857,0.06634508796427095,0.5295042493717149,0.5581999196094029,0.35246290570827293,0.22338305923404234,0.17173242549778966,0.3130702642679264,0.05295011100070604,0.3698876344575056,0.5576931237570544,0.5145286354910035,0.5967945286078823,0.3871556320090928,0.5297057838463224,0.39940442946342497,0.49131023844295385,0.5240277285656112,0.5064083913150216,0.288668417168115,0.20019531547884906,0.4948078356307197,0.567709587844121,0.4078869481896394],[0.253121064920872,0.750223192482163,0.4497683792293547,0.0314430409039305,0.6250821040275476,0.6270070095675596,0.4731483413263188,0.05587992073166961,0.33886786244260897,0.126495494455099,0.02414784881873024,0.5036616644358811,0.299390128229058,0.787422128921521,0.34902384439993533,0.7177237875561077,0.48095883022447683,0.495590926421911,0.8030348023973629,0.10881253415790591,0.5473908386537373,0,0.2620822742593883,0.4225632380580876,0.08654456674855154,0.6587229560470997,0.13661285221162062,0.6394037981257673,0.8031091803455926,0.5255046840402823,0.5742674720969606,0.5817413290317508,0.1857531064688247,0.4939517513887839,0.40772351238965315,0.890523887286784,0.6617916997411071,0.9094031512227225,0.13801081402830795,0.684489762771618,0.7536671607535015,0.5876059125757351,0.5042301223157071,0.3994741291557007,0.2748902204402329,0.5416866178008513,0.642603947115269,0.8134583414512752,0.16504856686218464,0.2729931256276504,0.8586672442776728,0.45186224875199116,0.1357762292705045,0.19621287665651335,0.21184650371872765,0.24204406125845634,0.19686027459496497,0.14154323359566023,0.16523233378704413,0.4238886455134752,0.41743102173607466,0.2022510799326246,0.1903698762927592,0.8153461286543183,0.14448222166459462,0.6821555425553204,0.6318883430785821,0.24974335701266293,0.20966096540229867,0.17856305670199182,0.3012788275715385,0.6998255495188882,0.8667976972137741,0.543083578156464,0.25753250278352585,0.5801028634789801,0.17929863093241002,0.1975638310346656,0.3881345201731574,0.10162011872925344,0.2361873798129754,0.8933932164307568,0.4741149484466706,0.5789237238209239,0.5601195309824794,0.5610934075788586,0.43602996802478305,0.15686231106838008,0.7118386730908202],[0.2682007013526939,0.5474312336185746,0.5437141360731091,0.29717855827612494,0.34288921740335626,0.38101393654729837,0.6051482444525506,0.18828330539284063,0.12616101927877196,0.3702491519192117,0.2566365551938527,0.6170186751962088,0.07691840013054614,0.5513694707968039,0.06623029356778293,0.45803328801852994,0.406619439086513,0.5456241261927309,0.5475411831973401,0.21582548555713923,0.41584989831121577,0.2620822742593883,0,0.14453573623197957,0.24191360154634667,0.38894641130704066,0.16673655505679424,0.580790161387051,0.6014119253862562,0.24112464219571683,0.5020184330119062,0.32061212456559174,0.34357086915757223,0.5786854910569742,0.14501659990188812,0.6415896659153699,0.42861599487978935,0.6869948163417784,0.24185559881806468,0.4692811325109502,0.5099462004778288,0.47071187497510536,0.2473860462437973,0.4593726772996452,0.11994396616330459,0.26618889638992604,0.5450880835602975,0.5427533286265389,0.07649439984744655,0.15124254456277392,0.630156197539796,0.4843284830788107,0.10388129429798043,0.06443168875246798,0.10624166095258603,0.19454769700136157,0.4270258184579097,0.33250759465551727,0.21149731332848806,0.18867686097407188,0.43448515694616696,0.15811809363769413,0.13919157649758868,0.5371252881575369,0.1286135852800056,0.41254700464669636,0.5041694188876726,0.4628657345778051,0.12891737037732393,0.2330813589182958,0.22546848483768536,0.6059384364585638,0.6748621348907581,0.44976567147030083,0.02720377553801624,0.30387412138095365,0.09929617318712644,0.17368221040272788,0.4963999476732168,0.1596879432289776,0.37031099997108896,0.6290499208078753,0.20407971153169743,0.29580409541721925,0.2999456090120576,0.3301011086042462,0.5877903691239601,0.16038056245920443,0.4386523224400257],[0.34162743466499645,0.41680565829107113,0.6024381591596133,0.45089346477841513,0.2168152507007252,0.22791953885989757,0.6778876024055219,0.3451773440946705,0.11264351725198894,0.5114692629693385,0.422025641138988,0.6791466446492728,0.1164977583025188,0.3986612610515373,0.056527056358031555,0.2942582713731936,0.38682777502808363,0.5805547863648778,0.3845944929899891,0.3826362001437556,0.3526980991647938,0.4225632380580876,0.14453573623197957,0,0.38028766102010625,0.2220438763719548,0.29711457465155905,0.546643015032985,0.4689351573320788,0.11293590753741103,0.46810173696597496,0.2532879392055861,0.4587353374090591,0.6290361786288426,0.1403559608112918,0.48056241315326137,0.282616372938238,0.53903489700453,0.3636801851516611,0.334310777490307,0.3537325648647452,0.4100355623491499,0.20615649065841016,0.5108941281453021,0.17390994445585206,0.17546450658651785,0.488942725867734,0.3753852058207023,0.23487996191383437,0.20379196086046827,0.4799544757331976,0.5172556459655513,0.26810835793497695,0.20541214748893985,0.21306460086905105,0.26771667205390526,0.5588162925481652,0.4610575688597836,0.3728934241461061,0.2058881348005505,0.4665770868384161,0.2572996492926233,0.249184168967947,0.3707794272271935,0.26742586713916056,0.24558541520545948,0.4314558378283013,0.5849923797153574,0.2826833921638992,0.33892092554419423,0.2633727600941551,0.5463485569076348,0.5457861908029138,0.409044082695603,0.14280697575413712,0.2037637303485186,0.2637659165031443,0.32908082408827544,0.5676727470760967,0.3270130431226546,0.4714917115334456,0.4625969161816642,0.1488224940344815,0.16964994791063462,0.14001066177621257,0.19445350447309315,0.6718566522061815,0.323982353024497,0.2712100134857671],[0.14459687480256178,0.6594980002056324,0.3536238075744115,0.06986086053741615,0.6044162266564025,0.5549531754616581,0.3888997942498245,0.06243043995717458,0.2723912829121776,0.1083257981331821,0.12817370620368623,0.41408150354549583,0.2439117711074411,0.7074743280259687,0.31723107978434906,0.6510146519824347,0.3735945091470329,0.3918079188241971,0.732320681463944,0.19094520132042578,0.4456126669732152,0.08654456674855154,0.24191360154634667,0.38028766102010625,0,0.6004414954823425,0.06067258055062333,0.5300878026610891,0.7112845250390047,0.5000152644982818,0.4657501215273515,0.5834914628924701,0.09781039080488138,0.396658807917836,0.4064018612394554,0.8150544492856964,0.583164225696508,0.8226341721025286,0.02878781761713964,0.5987926114957638,0.6776830226859804,0.48296661722699324,0.5081778318236114,0.2951850578087933,0.20236473900008684,0.5309481147430885,0.5352939885669041,0.7532434781669274,0.14620899345789648,0.19041187952196045,0.7747023578541576,0.3451077943883464,0.13836833131503268,0.15754449802538895,0.1465718723985055,0.14550369046311,0.16227018025436407,0.07072601254066059,0.24152183622617482,0.4377002138151219,0.30890741801223626,0.11680040489604553,0.114071200582561,0.763034617089153,0.09204278270045005,0.6232307013226258,0.5279938756689755,0.2013397335228758,0.25147006410186173,0.0712168148420827,0.20225107993262464,0.5918364925037096,0.7716702148882928,0.43649824894998296,0.218443466590533,0.5684783854045191,0.2068204376142224,0.25726310569523764,0.29394335433587876,0.14995902878613707,0.14247453364333953,0.8271360140346806,0.4683649379698595,0.5565876559718558,0.49786678179119614,0.48463370581715937,0.35837978302974466,0.21334647522756878,0.6554969663825361],[0.5148619381204111,0.2708398926026369,0.7290972529136556,0.6806436062537077,0.21574505442320602,0.08353296001555895,0.8151048514053965,0.5800625346543534,0.30530058464436893,0.7283786786994193,0.6628656885822369,0.8038030518416518,0.33732918534735906,0.1938579694706274,0.3014682763763954,0.06117640158352575,0.4500471953807642,0.6810782569080782,0.14839715126880246,0.6274794743016282,0.3620944022030869,0.6587229560470997,0.38894641130704066,0.2220438763719548,0.6004414954823425,0,0.5176346247725042,0.5583871019102727,0.30929291775464945,0.2020918607806677,0.4935504380721351,0.3380709798999434,0.6549515150729651,0.7435410122482757,0.34107930376279877,0.24645635202043611,0.1323599443243279,0.33448271683483954,0.5726449792412197,0.19851962360713643,0.14362364983337902,0.4069500655923696,0.3444289946562124,0.638597472329055,0.37592469794627426,0.2696873554397939,0.4760374145919215,0.13192244243007506,0.47403253801397605,0.39424501688209257,0.27401647594119766,0.6227690034102691,0.5094559768751556,0.4396827148790377,0.43190350182006715,0.4549443379867652,0.7651293042311172,0.6688788153540001,0.6170646748507685,0.39482449575426065,0.5781555102562036,0.4639579260425099,0.4635187125345851,0.14351601691715146,0.4952575781796417,0.0007151721209166833,0.4027642022042918,0.7807179899192899,0.5255536918181581,0.5384310044003976,0.4238857809121609,0.518110340670496,0.384493974485411,0.43729990766899246,0.37963956963722656,0.2640470498941324,0.508695718418161,0.5718040961026599,0.7115006576611252,0.5707205944083003,0.6539841000700013,0.21776372298414018,0.3041090358460794,0.2054121474889399,0.08128469147356714,0.1423816397666901,0.8224403974615024,0.5687488509669908,0.03311290002393998],[0.12165397001153232,0.590869690494599,0.37880249714777414,0.14309249769081495,0.5239996465217307,0.47535974410569015,0.42885403857313226,0.06796515286964473,0.1901236910678657,0.191536888636807,0.16313901354927882,0.4470174219264255,0.1603316753937764,0.6315579259157466,0.23627134358214016,0.5699503867768932,0.33446122894076724,0.40020679518340624,0.6525531180005228,0.19320157771498372,0.3911407661286135,0.13661285221162062,0.16673655505679424,0.29711457465155905,0.06067258055062333,0.5176346247725042,0,0.5018550463564762,0.6436570087315242,0.41899779929439795,0.43110359081342026,0.5102559621816861,0.15434571758366078,0.4185834346407462,0.33425344598155426,0.7371588186883746,0.506398719204695,0.750977715127735,0.05256105157855306,0.5262043800784638,0.5998437143092005,0.434331228531001,0.43665145152629653,0.3055617556575424,0.12121061041869181,0.45369992999828634,0.49433295808014743,0.6708980512171128,0.08119866852219072,0.11436987353232252,0.7011472041823645,0.34551447391336454,0.09096887545826302,0.07961295091665098,0.06310269684440062,0.08585245616711246,0.24098402803502056,0.1443598383617891,0.2318032234920571,0.3719772357669741,0.30178377874374085,0.042748139384728316,0.03290689983064693,0.6797243178687455,0.016833930379611346,0.5405429326130549,0.4774002347033408,0.27371458796931897,0.21265202392095334,0.05654316721403903,0.14527554241232563,0.5533629224577645,0.7073428895234085,0.3937415355698237,0.13744511022011643,0.4906801350071472,0.16312525423765115,0.23165746050759842,0.32454272132452333,0.1339591179613156,0.18536631669441958,0.7461599433125918,0.39347419772960013,0.475993804448467,0.4155376600672362,0.4066373172957926,0.4058648961596053,0.19046587152420386,0.5725009736042678],[0.3641103411607064,0.3528956841464614,0.30612237684845417,0.6143811650032016,0.7446673639272051,0.4525841767800102,0.3861399844886312,0.5896799357275977,0.4435181823025,0.5815973730831835,0.6781614995842726,0.34903760892985275,0.4845328260522546,0.47370275952649366,0.566509998477999,0.5344311990968609,0.15184415166104206,0.2189731871368248,0.5569320994411593,0.7177842687669188,0.17932394784114858,0.6394037981257673,0.580790161387051,0.546643015032985,0.5300878026610891,0.5583871019102727,0.5018550463564762,0,0.37328450474538327,0.6631362551010465,0.05665585186170911,0.818680248906997,0.4672564551115224,0.28612765864919104,0.6975658890647375,0.579928793458098,0.41818899243399105,0.4970108109094891,0.47849395009309814,0.36860498399409836,0.48585276563798957,0.12870647308320438,0.7756116789706184,0.26786196544616686,0.43974634661014134,0.7380036755677258,0.06717297250008267,0.6391157992732059,0.5693780163548099,0.41269687815370254,0.4857219323613345,0.20805950125503722,0.5994798346321377,0.5338774846589169,0.47951141421479043,0.3984942471907079,0.5610671079439495,0.5139162484719724,0.7522336207551912,0.7610992318162039,0.2149876725569754,0.4481626630906834,0.4700294796232348,0.6928910806125634,0.5228657996617823,0.5668594977922363,0.13953861660746833,0.5323444314232559,0.7082887193841427,0.4390486860891586,0.345299024469622,0.07170507114345066,0.38232995423533067,0.1146958047794603,0.531363915397074,0.7582797369281777,0.6603096326602468,0.740743843196463,0.3401498123822871,0.6561814626797748,0.42352756099721744,0.6524166758526181,0.718259306547641,0.707982334504192,0.4904483215590292,0.40059380849952325,0.4245155513800637,0.7052630123650949,0.6002792679502738],[0.5647463164458085,0.031230687136219456,0.6622999529667655,0.803676092125953,0.5475165024836169,0.230114292034694,0.7509198282723715,0.7295243258515105,0.46140917148443983,0.8148757264278331,0.8248518484280732,0.7224952688081607,0.5113830322134533,0.11379060202441776,0.5349453620195698,0.23839595727597224,0.37538520582070223,0.5859012447026473,0.20623470191660706,0.8221860008171751,0.2667903704278382,0.8031091803455926,0.6014119253862562,0.4689351573320788,0.7112845250390047,0.30929291775464945,0.6436570087315242,0.37328450474538327,0,0.5152140621408365,0.34877255218895203,0.6650644497240948,0.7111607430328463,0.6567334596511512,0.6263745505573335,0.19263227555634496,0.16941716960881043,0.10470637106569312,0.6663784829469683,0.11173402281746654,0.154461210826704,0.2643189962108115,0.6583886457539981,0.5909739449428676,0.5112512639012333,0.5907007606973698,0.285480897977614,0.30282276836238475,0.6513545166535457,0.5076932109007017,0.09150708906173656,0.5473616627329387,0.6897946204635844,0.6098098675700346,0.5742010279891573,0.5428890709426943,0.8249529943853472,0.7444071984416057,0.8317489293436218,0.6891927647492494,0.522703964302817,0.5781320866713382,0.5902688397742498,0.3695290453625574,0.6404329985538689,0.30153534630067785,0.22570541117460682,0.8180914924012369,0.7532187424677624,0.622824503872728,0.48717932632471117,0.29202285643607223,0.05494845917710421,0.32161662450137857,0.5681579941628463,0.5914991181028644,0.7196067566614737,0.797788203564327,0.6732369248882641,0.7570089516693154,0.6868794208349952,0.27993189465750873,0.6091541262062207,0.5323052440291114,0.31882280167178323,0.25252691532900073,0.7778413053253519,0.7793790541405441,0.31929064619212105],[0.47652712564314886,0.4685863345417124,0.7381499996315224,0.5610758746205194,0.0828453450359737,0.26242338601434334,0.8136970338364019,0.4522960758490633,0.24846351979208817,0.6306420527188802,0.5160814928514249,0.8148894756935627,0.24693108603414288,0.4150908018660693,0.15991910785198515,0.2861276586491911,0.5123116761030702,0.7144539067820627,0.3721068613073005,0.4595106566273588,0.46295794191068634,0.5255046840402823,0.24112464219571683,0.11293590753741103,0.5000152644982818,0.2020918607806677,0.41899779929439795,0.6631362551010465,0.5152140621408365,0,0.5866072027410228,0.1360099612041572,0.5878259963546676,0.7642599052354834,0.12780899029447537,0.46971520837630015,0.32330279893261965,0.5574880763118878,0.48975225228947156,0.3866778101435893,0.3652693814012123,0.51879123530711,0.12113066076177942,0.6464774690210828,0.3073531687106859,0.05553803747376169,0.5970485120606274,0.33094126163352267,0.34028022534163427,0.33844307711316285,0.4967842841304052,0.6512880761423212,0.36682582674871445,0.319858684773448,0.3391507757846238,0.40173766240086867,0.682872214984443,0.5858108397886569,0.4352903377658106,0.1726050340737905,0.6008622688660928,0.3869370898296012,0.3760402084860042,0.3039211177819279,0.3850998509851173,0.22108581451897344,0.5327108150026107,0.712816995867236,0.34164147846640536,0.4689195436919373,0.3992134539793654,0.650929184179482,0.592874527408248,0.5267448676062777,0.258812028265139,0.07251327992616087,0.34030136897673235,0.3851845391880334,0.7034415382592215,0.41484527398587745,0.6038447001021671,0.4261374203536321,0.07971277612947963,0.03477879556819806,0.17760149940650477,0.2645105414538686,0.8071542410231931,0.3939902822125272,0.23097780712484092],[0.29831214679245394,0.31883778261607354,0.29509652549414367,0.5530896763567645,0.6705733015098239,0.38934710039666465,0.38195393407396244,0.5203648915327889,0.3639780364051889,0.5287785796660017,0.6111112409844661,0.3513668017201716,0.40530035813916054,0.4321145112094749,0.4869584725591398,0.4773209241252528,0.07515921532495029,0.21490157612676752,0.5093477785316484,0.6461045179359198,0.10881253415790594,0.5742674720969606,0.5020184330119062,0.46810173696597496,0.4657501215273515,0.4935504380721351,0.43110359081342026,0.05665585186170911,0.34877255218895203,0.5866072027410228,0,0.7411912073378254,0.41451768909946096,0.28571737151701715,0.618121755860177,0.5434520538877458,0.36132237434167674,0.47602971896123447,0.41408150354549583,0.3191110695857655,0.43750010424834657,0.06968133094217234,0.696901188174105,0.23667596385095263,0.3616386938341167,0.6607422341173942,0.05613941073549321,0.5857919161306536,0.4938204918301454,0.33548048108922807,0.45592363684770904,0.1836075023198288,0.525009693361635,0.4573941708186866,0.4035422396112691,0.32540730587406286,0.515772705079749,0.4590541127056276,0.6785119319057129,0.6815744126013986,0.17356498724598673,0.3747934937910714,0.39614600986496207,0.6357121774518496,0.4497683792293547,0.5038803746765348,0.10029751754593468,0.4931959330645459,0.6316224583486445,0.3728319796879732,0.2702117977554322,0.10446543839748242,0.3728934241461061,0.036999143412621026,0.45278601266960233,0.6819340432736143,0.5841496247985394,0.665138860870009,0.3162475553259414,0.5834175860598683,0.3748964634546667,0.608276716909199,0.6395583767237809,0.6327146335392335,0.41947543007616384,0.3318479795087244,0.4132195625075644,0.6306420527188802,0.53843328446158],[0.5962676456612898,0.6209089610815245,0.8676848425817932,0.6262878103395744,0.10884168113650969,0.4148218831955827,0.9373880308938044,0.5190416269893204,0.3811026492173069,0.7082186998740108,0.5605298978784099,0.9435789560939017,0.3646754347598842,0.5547826049696752,0.2664455602812871,0.420030570267268,0.6626734281898092,0.8529722290351213,0.49755210559895596,0.4860740991844485,0.6199560175119307,0.5817413290317508,0.32061212456559174,0.2532879392055861,0.5834914628924701,0.3380709798999434,0.5102559621816861,0.818680248906997,0.6650644497240948,0.1360099612041572,0.7411912073378254,0,0.686884830418466,0.8975254107638573,0.15424459923048411,0.5913199428140039,0.4753289190012656,0.6941773260813604,0.5852870680489123,0.5404520644995772,0.5045675059744961,0.676274916694805,0.054701479668605175,0.7779164249498586,0.4273755706171626,0.05820122533273558,0.7548134067895241,0.435522123891659,0.4145264668921795,0.4609491285593953,0.6341342794868258,0.7896366742500948,0.42981344306356994,0.40785129475841075,0.4424715303645283,0.5197897505002586,0.7684437177232025,0.6754103623256525,0.44657053861914286,0.1403559608112918,0.7386610721601108,0.4941894197184408,0.47841225951167515,0.3895054049841653,0.4719160886329584,0.3521763841884172,0.6913086890564846,0.8060880896518153,0.36134569098039804,0.5736498999097848,0.5294741287105023,0.8093162809099557,0.7419947994802011,0.6815507940637683,0.3560193903416009,0.051122770943424885,0.38033209968498266,0.39504503827722837,0.8270411512550189,0.45927713002035436,0.7113891132838064,0.530272928940211,0.09514089960099985,0.11012744690167471,0.33428927925287655,0.42297103375467626,0.9249604907468412,0.4190904710617299,0.35049377167002865],[0.125963412415965,0.662804096461181,0.24117795901574546,0.1419163850678807,0.69354163777007,0.5930407831187632,0.2690217093412352,0.18300546166795764,0.33331692284063047,0.0915853671583706,0.23254081166928112,0.2964099086097908,0.31948134313803006,0.7295923628928527,0.4071733179924919,0.6938416957644273,0.33459729712398706,0.2919984712684786,0.767977784902015,0.3071787301185273,0.4273784130173481,0.1857531064688247,0.34357086915757223,0.4587353374090591,0.09781039080488138,0.6549515150729651,0.15434571758366078,0.4672564551115224,0.7111607430328463,0.5878259963546676,0.41451768909946096,0.686884830418466,0,0.28549749852757217,0.5113542855353161,0.8423132307296834,0.6104730129911929,0.8307074991998648,0.0788988630722801,0.6135049288240251,0.7067256884748356,0.45278601266960244,0.6137622975235796,0.19832879543266935,0.26404704989413236,0.6280459793324219,0.4906527216684868,0.8022410204572047,0.2561232935110638,0.2396566242556062,0.7886862957375439,0.255774470436525,0.2554068159376533,0.25623335760523225,0.2260243898798038,0.17718616136254373,0.0920761806870355,0.026040942150824142,0.3599575511192807,0.5487066919556144,0.2311995234723064,0.17856940933486076,0.1890877986911484,0.8209902193238167,0.19367485306109458,0.6764231755686749,0.4992804780235676,0.10398220065113353,0.37165298560215204,0.09703392498616951,0.21457304713965591,0.5415959337863936,0.7630297316426469,0.3990769900037042,0.31014328946581604,0.6643496927990298,0.3258993436323876,0.37786149514010614,0.17947578278680326,0.2704911170206224,0.028290257087643673,0.8672766067194779,0.5696199913119734,0.6454154460745699,0.5507607141609429,0.5187156226180076,0.2376651193524324,0.33393078461466885,0.7109514865436997],[0.28787872057364533,0.6237039459438869,0.02189053515543575,0.44960046882515686,0.8647179949259536,0.6504712719947283,0.07726397457257243,0.47952415131991233,0.49495614556204925,0.37921329416190264,0.5405065871263022,0.04286499914689002,0.5110811149092059,0.7293150733938074,0.6095023204869707,0.749293919634932,0.27803681122889506,0.047942490640032684,0.7975589225655011,0.6105114056296296,0.3855983176698641,0.4939517513887839,0.5786854910569742,0.6290361786288426,0.396658807917836,0.7435410122482757,0.4185834346407462,0.28612765864919104,0.6567334596511512,0.7642599052354834,0.28571737151701715,0.8975254107638573,0.28549749852757217,0,0.7372413261527777,0.8436538833269662,0.6391544641167829,0.7842316429507684,0.3566842074660592,0.6107053539153616,0.7264887161955114,0.37093869556841896,0.8347089478715553,0.09709793358808733,0.4489634917999699,0.8248216532661176,0.35738151943699736,0.8622532080379406,0.5186659960536216,0.4149855924890278,0.761378339145412,0.09802225111033464,0.5324066645418706,0.5002697495879748,0.45007966812628825,0.3616420221291197,0.33042002250771757,0.33212206683245493,0.6601897292446048,0.7891829008728755,0.14380800173654704,0.3995619949862807,0.42084755755866554,0.9022480467074208,0.45519068928012457,0.7593325118031786,0.4082076963857181,0.28344888174708116,0.6540880878783768,0.3391472407322739,0.3451634352047599,0.3805542195899585,0.6805708351400849,0.31633811339983403,0.5320677553522988,0.8553858289708242,0.6046100191867265,0.6699288874113603,0.08429976310931438,0.5651447487504364,0.23486010155322834,0.8993549193710538,0.7815266458528553,0.8194418263695391,0.6496287363093662,0.5796718421916452,0.12008724752784167,0.6269026272988093,0.7957379971477789],[0.42976255234975186,0.5755007044247402,0.7045754359380344,0.45057730468031143,0.20568106214172785,0.37746209835439487,0.7698269570059307,0.34263370795235193,0.2347011635474904,0.5312438272546197,0.38998615422607086,0.7792641842268152,0.20530000619246042,0.5432079372682577,0.11018515855153198,0.4231403603608409,0.5300530845837894,0.6983754977780959,0.512285370763764,0.3226070914908103,0.5101959449044597,0.40772351238965315,0.14501659990188812,0.1403559608112918,0.4064018612394554,0.34107930376279877,0.33425344598155426,0.6975658890647375,0.6263745505573335,0.12780899029447537,0.618121755860177,0.15424459923048411,0.5113542855353161,0.7372413261527777,0,0.61034569443014,0.43600486806166544,0.6858905776829363,0.40957414117719393,0.492421621099974,0.49512664949165536,0.5676120631537335,0.07950053123939231,0.6172506397503245,0.26594972844806214,0.11384676779562747,0.6461045179359198,0.4794196975240013,0.23738499440983746,0.2999456090120576,0.6255539975039256,0.6356266671604395,0.2533945005677037,0.23230020094395173,0.27094008896548777,0.353824304407081,0.5913011888904813,0.4985520195090197,0.2915795643893367,0.04276763045173174,0.584773375872139,0.32315859161811655,0.3057487356441439,0.45461477847579435,0.2954947270546475,0.36235693790836326,0.5918927035712106,0.6293502132550185,0.19957488204837576,0.4004668587516223,0.37259581481694404,0.7047794905868834,0.7039065798281006,0.5606549255886603,0.18481867201156396,0.15195397779738726,0.209087918608583,0.24023119551241282,0.6601803609038864,0.28768098269581194,0.537981651581234,0.5737721784733115,0.044365705942918596,0.16576221057086934,0.28683505635364875,0.35506230198462907,0.7543705896903488,0.2554068159376533,0.37715509091907284],[0.6936898964107946,0.20413609046749193,0.842660787656167,0.9031095230540467,0.46059189715025334,0.24111979467819558,0.9322563398980839,0.8123634619267555,0.5289479106396118,0.9337666295082876,0.9022923154363733,0.9089788552685976,0.5717782701419423,0.09283061675528877,0.5586622605564943,0.16499408288822098,0.5468115294210315,0.7738032442170135,0.07515921532495029,0.87889851771148,0.4362725302658959,0.890523887286784,0.6415896659153699,0.48056241315326137,0.8150544492856964,0.24645635202043611,0.7371588186883746,0.579928793458098,0.19263227555634496,0.46971520837630015,0.5434520538877458,0.5913199428140039,0.8423132307296834,0.8436538833269662,0.61034569443014,0,0.20972149357219633,0.11376251048312837,0.7777118273042669,0.21334647522756878,0.11447239239049084,0.45238225517907954,0.6091217262884945,0.7624302196884875,0.593715735984583,0.531712485506842,0.4901290951994044,0.1419552064414407,0.7154668997891279,0.6017664841051908,0.08079217058836667,0.7274752291696893,0.7531000001363373,0.6769226315635837,0.6559948503147116,0.6521437088232719,0.9571135711339075,0.8671285030772264,0.8749158214754926,0.6638802293083358,0.6946483717285971,0.6754543485446262,0.6813472784694433,0.20668668691287392,0.7231560375620338,0.2259678267163146,0.422336204108055,0.9604967518140529,0.7859946130101875,0.7373709626491002,0.6055251351908064,0.5044607316176158,0.22940004771915737,0.5046451464785874,0.6225072940890783,0.5190817733822062,0.763666212426882,0.8323836538631295,0.8435416260217323,0.8180671421741744,0.8280900761918806,0.0745307438023498,0.5722709221981691,0.4637449438465105,0.31902124591583975,0.30767079790339963,0.9527943161857466,0.8246540505645178,0.2189361444653638],[0.4621986860421789,0.12272131464979148,0.6319704327226566,0.6720592637476601,0.3630572654311121,0.03797398861910842,0.7209276770912152,0.5843519926438712,0.30242566801305426,0.7011419011572377,0.6763280006449579,0.7027945649294007,0.3485038602948988,0.1028474247041996,0.35393300383343973,0.09343724381361752,0.33825530453104924,0.5720192688431306,0.13875672873370748,0.6604107848018229,0.23517272470678732,0.6617916997411071,0.42861599487978935,0.282616372938238,0.583164225696508,0.1323599443243279,0.506398719204695,0.41818899243399105,0.16941716960881043,0.32330279893261965,0.36132237434167674,0.4753289190012656,0.6104730129911929,0.6391544641167829,0.43600486806166544,0.20972149357219633,0,0.23564837599605598,0.5451782101201503,0.04390754017402812,0.07335459636453259,0.270019611260587,0.4661585449874396,0.5464744507713927,0.36404088680460084,0.3995013998176735,0.3316892005417171,0.20236473900008684,0.4926202735005371,0.3701189136811739,0.17878527980115447,0.519195111854653,0.5309203836000008,0.45258417678001023,0.4270827072350783,0.41953618246038116,0.7250971991651098,0.6345782635389828,0.6627480988226749,0.49797245066611046,0.4806462966361096,0.44380347476503956,0.45068271483108496,0.25202925812447907,0.49457045132845306,0.13332960501143307,0.2574594715267788,0.7300752491120835,0.578674853465853,0.5047421810432281,0.37328450474538327,0.3685363271287325,0.24725816612336204,0.3104467421796245,0.40247545619741315,0.4024032390657908,0.5501111076343836,0.6244398559438005,0.6253980539822761,0.5973209639685492,0.5980654681598057,0.24108585956322712,0.4168755103959868,0.3434206652169767,0.12688049927825393,0.07829361788815824,0.7362759333021377,0.6110385638969028,0.16284985397916435],[0.6828504533761656,0.14584533419968643,0.7898949597751763,0.9141273887631316,0.5672738527906559,0.28826970634936067,0.878533696508978,0.8336711165322408,0.556346865586205,0.9314694546963931,0.9276356744242633,0.8499832343339889,0.6042529865008847,0.11999771350998595,0.612095598675947,0.25133008743304325,0.5017745536308825,0.7133891118435057,0.18044106547647507,0.9168769934879067,0.3920886666778611,0.9094031512227225,0.6869948163417784,0.53903489700453,0.8226341721025286,0.33448271683483954,0.750977715127735,0.4970108109094891,0.10470637106569312,0.5574880763118878,0.47602971896123447,0.6941773260813604,0.8307074991998648,0.7842316429507684,0.6858905776829363,0.11376251048312837,0.23564837599605598,0,0.7798846053546018,0.20201789929111746,0.16935060975633123,0.39189432301765686,0.7010322966074556,0.7179587725791112,0.6129979297909172,0.6270601789951591,0.4107798979627076,0.2692145523543883,0.7475898335478504,0.6137622975235796,0.03780557472251237,0.6749061556668828,0.7860832143916576,0.706795851248575,0.6765110178493209,0.6546965690224095,0.9451998273417996,0.8617903864307525,0.9208860355930851,0.7448257548446465,0.649615414633251,0.6861938732495398,0.6962145156980476,0.33685278031979166,0.743791455621425,0.3191185538267799,0.35312720329153646,0.9407514771174004,0.8372303466169251,0.7370392511627366,0.6013709229533483,0.41161427870370115,0.10518687689901261,0.449047567780045,0.6593648228372229,0.6203560676150056,0.8082020851970209,0.8829767380660616,0.800225229045624,0.8529722290351213,0.8088363132826173,0.21115307023455082,0.6577026082400184,0.5623019131304287,0.37792216860855327,0.3345793963746333,0.9052783313065265,0.8690117536734079,0.32387533779091715],[0.09300741752304698,0.6152321306387438,0.31492415846180616,0.11884668358604762,0.5952415203642503,0.5204897392342003,0.35837978302974466,0.10103289102556093,0.24535650466985406,0.13401622118764445,0.17830878692809243,0.37957597509536667,0.224497818657946,0.668299484744086,0.3078449769795178,0.6186506407013161,0.32223646299460107,0.3466487177525817,0.6975801005666658,0.23412916885761714,0.39656118043010313,0.13801081402830795,0.24185559881806468,0.3636801851516611,0.02878781761713964,0.5726449792412197,0.05256105157855306,0.47849395009309814,0.6663784829469683,0.48975225228947156,0.41408150354549583,0.5852870680489123,0.0788988630722801,0.3566842074660592,0.40957414117719393,0.7777118273042669,0.5451782101201503,0.7798846053546018,0,0.5571814724293505,0.6405719051063191,0.4325783877769119,0.5119815699748824,0.250132700981714,0.17453323810662805,0.5274429869214866,0.4838968217896177,0.7235676494032452,0.1553178435327745,0.15637752479552328,0.7333875918094174,0.2974024003111775,0.15853475641249257,0.15454056882710196,0.1280720136470169,0.1030304890126244,0.17251991331482808,0.07474068374338838,0.28133178913257234,0.4472706487377516,0.25933400475270985,0.08618146289176674,0.09159654537519278,0.7371857608860032,0.09204278270045005,0.5949432938175307,0.47787327861821893,0.20037881652984627,0.2784660489021462,0.02122852943679912,0.15629183813625638,0.540254375728031,0.7251348417680423,0.38537894191258937,0.2098260051513524,0.5640729398316258,0.23059438578019728,0.2907808760958465,0.2575872637475952,0.18556287102393812,0.11210424385022141,0.794210672094504,0.4682085979458497,0.547128201607752,0.46895857686297665,0.44842070561908814,0.3327883702988008,0.24748073326576353,0.6282818776409369],[0.4647039435413878,0.060242702099728325,0.6077573972643122,0.6898646542226449,0.42967772177698843,0.10290847573607054,0.6973171423876955,0.6087814268198667,0.3331983364774824,0.710569439556658,0.7029127202572929,0.6755752963640645,0.3821309282222568,0.09760877854495477,0.4007479106230997,0.14911291205882063,0.31161571726471576,0.5416775500548631,0.16732953115074925,0.6945038792489612,0.20219991462955086,0.684489762771618,0.4692811325109502,0.334310777490307,0.5987926114957638,0.19851962360713643,0.5262043800784638,0.36860498399409836,0.11173402281746654,0.3866778101435893,0.3191110695857655,0.5404520644995772,0.6135049288240251,0.6107053539153616,0.492421621099974,0.21334647522756878,0.04390754017402812,0.20201789929111746,0.5571814724293505,0,0.09548733737582636,0.22652261887748026,0.528397975206738,0.5263931452007575,0.38821235695650314,0.4636844504269875,0.27975010940133216,0.24793477018092488,0.5243739552959799,0.38894641130704066,0.15331739826740157,0.4929875787848387,0.5629052309970825,0.4832499039322638,0.45171125941932877,0.431478372339856,0.7284706672960218,0.6418573400594435,0.7013398544270277,0.5557101666327228,0.4588017663254192,0.4616073311319081,0.47133377098018525,0.3046760503207919,0.5189282564116852,0.19776692084438904,0.20616766533017467,0.728455336645343,0.6208692004249121,0.5149285738601598,0.37994786074948733,0.3109991616977596,0.18873129560411844,0.2739216299486969,0.4382112103951968,0.4679192376214055,0.588812255083726,0.6658676646796806,0.6073473195700297,0.6300052737902659,0.5958851164490595,0.2670729853490655,0.47763553404402564,0.40911222718198464,0.18729314837699113,0.11811344386823412,0.7168211666466073,0.6491108998034802,0.2248286851876348],[0.5584575549259503,0.1307607864435463,0.7216912589854897,0.7657722047656351,0.3804780779723284,0.10624166095258603,0.8110477090777863,0.6756760702177255,0.39243394198514636,0.7968098033190569,0.7662734982215277,0.7909304274811589,0.43627531759277244,0.027331317851478847,0.42985019391052404,0.06372543020242619,0.42604620320015396,0.6580710869062764,0.04896480660356552,0.7455989003308154,0.318534290382917,0.7536671607535015,0.5099462004778288,0.3537325648647452,0.6776830226859804,0.14362364983337902,0.5998437143092005,0.48585276563798957,0.154461210826704,0.3652693814012123,0.43750010424834657,0.5045675059744961,0.7067256884748356,0.7264887161955114,0.49512664949165536,0.11447239239049084,0.07335459636453259,0.16935060975633123,0.6405719051063191,0.09548733737582636,0,0.34491298524798747,0.5089340175607309,0.638020646417731,0.45654068928262437,0.4355807499997754,0.39641164428903264,0.13467548204043103,0.5803426581578404,0.46438886421588466,0.10863751666379945,0.6076863632985134,0.6182575113169818,0.5412512015916743,0.5190062012315976,0.5151498404846249,0.8213253301519136,0.7305646205041257,0.7441819840130948,0.5531474464982996,0.5712895175987808,0.5380752013711332,0.5440370534124468,0.19731406429990633,0.586277437267944,0.13071913627207696,0.3235060661962861,0.8262456942192378,0.6571062277855946,0.6004846121539988,0.46948912079405625,0.4235390284861899,0.2243839810467781,0.39154551003656524,0.4881945252950581,0.4305535390975545,0.632136535048636,0.7033499040592162,0.7178758452001225,0.6838272513866848,0.6941559075633162,0.14995902878613707,0.4654907525652486,0.3719383398065944,0.19084343367614093,0.17031348353061534,0.828309629878609,0.6932271564537464,0.14339292256947606],[0.3186617150237351,0.22990174942559286,0.3751023228636033,0.5743039060498404,0.5961746197695184,0.3014209245497483,0.4638843131058106,0.5252035401286123,0.3242921420421914,0.5642495307166894,0.6197230378543351,0.4366737312829313,0.3710686628080642,0.3401498123822871,0.44107232171505184,0.38629014647831095,0.09649918561613008,0.30034179657967625,0.41675908405570256,0.6426424093163927,0.03453421961484656,0.5876059125757351,0.47071187497510536,0.4100355623491499,0.48296661722699324,0.4069500655923696,0.434331228531001,0.12870647308320438,0.2643189962108115,0.51879123530711,0.06968133094217234,0.676274916694805,0.45278601266960244,0.37093869556841896,0.5676120631537335,0.45238225517907954,0.270019611260587,0.39189432301765686,0.4325783877769119,0.22652261887748026,0.34491298524798747,0,0.638374931345277,0.30545263482883733,0.3385776464749202,0.5952083911868307,0.056025988825326646,0.49381801491420974,0.4800308262011435,0.3186392317768581,0.3675574745438418,0.2601490790336551,0.5146786472468209,0.4404650541288679,0.39025884678370426,0.3255726199133021,0.5615490798814432,0.49299502145806895,0.6684864783399559,0.6326443514940654,0.23776333746286438,0.37204529448032153,0.39096762506508387,0.5448604503280857,0.44564271546528184,0.4158849018281857,0.023600674781898236,0.5464744507713927,0.6109901078760213,0.38893087287426925,0.26628627847418607,0.11443512165981023,0.29831214679245394,0.03533083028912061,0.4239659828077443,0.613207216458552,0.5663579775982598,0.6485793217302133,0.3875019388881667,0.5776719475438109,0.41996988570145816,0.5157940883974449,0.5812563994579175,0.5611218975135512,0.33997703119500455,0.24937225946969757,0.4907798075428248,0.6181517043881836,0.44973317715165934],[0.529467177555435,0.610885107121737,0.8032083405264653,0.5490894461388407,0.14752826321411985,0.40537208675461817,0.8702435532625694,0.44219918016652415,0.3234025995888126,0.6318101528961473,0.4829463763917191,0.8784456630602041,0.3007770428095546,0.5588734940440087,0.2025691809415612,0.4284657360517157,0.6134968843750512,0.7932468015930614,0.5123834113672038,0.4090855632283587,0.5811886053748553,0.5042301223157071,0.2473860462437973,0.20615649065841016,0.5081778318236114,0.3444289946562124,0.43665145152629653,0.7756116789706184,0.6583886457539981,0.12113066076177942,0.696901188174105,0.054701479668605175,0.6137622975235796,0.8347089478715553,0.07950053123939231,0.6091217262884945,0.4661585449874396,0.7010322966074556,0.5119815699748824,0.528397975206738,0.5089340175607309,0.638374931345277,0,0.7147454582597846,0.3628748381075303,0.05613941073549321,0.7173071970525706,0.46216702459075315,0.3390623891187181,0.39682655210790835,0.6403596750339123,0.7301228408429564,0.35304891130158494,0.33469394568636524,0.37232712715754374,0.4531571671244271,0.692807036994443,0.6006242075852165,0.37079893293471394,0.06495765728340037,0.6791138287532772,0.42444689223009235,0.40755406799135835,0.42469001264995204,0.3978346548064025,0.3621409405681887,0.6577308151870839,0.7314881225552877,0.28429579986642256,0.5024863640876417,0.4677705808729381,0.7739863603006477,0.7361579128441208,0.6380090273030332,0.2858832097288168,0.08237228403335368,0.3027284517462438,0.31909235826667764,0.760271118416895,0.38166931697216466,0.6401068396847667,0.5580104737817616,0.03444502431572032,0.125334480644739,0.31825303833046126,0.4003489427486087,0.8558025022640092,0.34196433670940257,0.36776392501548],[0.16943713307318045,0.5516546730531444,0.06941831357042058,0.36124242083605046,0.7479634950046791,0.5507919481635538,0.15365117162057132,0.37405906182587007,0.376171721434763,0.30697316192372087,0.4444940381698192,0.14617114877959064,0.3911624036710714,0.6467890585103868,0.4896124255441744,0.6518345920650866,0.19409991836514906,0.07373940751040071,0.7075093742986981,0.5070970748625516,0.3051757728879844,0.3994741291557007,0.4593726772996452,0.5108941281453021,0.2951850578087933,0.638597472329055,0.3055617556575424,0.26786196544616686,0.5909739449428676,0.6464774690210828,0.23667596385095263,0.7779164249498586,0.19832879543266935,0.09709793358808733,0.6172506397503245,0.7624302196884875,0.5464744507713927,0.7179587725791112,0.250132700981714,0.5263931452007575,0.638020646417731,0.30545263482883733,0.7147454582597846,0,0.3289789966531072,0.7057637781917285,0.315435224777124,0.7652023875219649,0.4028814493371863,0.2950119943771506,0.6880847391457526,0.038330330315474136,0.4192207578705822,0.3823678528705472,0.3311979790683678,0.24204406125845634,0.2751608617480116,0.24727237801464713,0.5539289959451296,0.6694798437555938,0.04549769606934045,0.28138647325290833,0.30314088551561963,0.8007071068696682,0.34053386777911604,0.655783671435824,0.34880698582133973,0.24220342483450824,0.5406905620506104,0.22652261887748026,0.22578262096007198,0.3546557369831112,0.626128099170928,0.2472960628390055,0.41237943789599524,0.7368084831718987,0.4907997397292734,0.5594957469473301,0.059360651925566464,0.457098291312955,0.14822522237938288,0.8099419767676616,0.6617000993074416,0.7021717271126775,0.5412693506429005,0.4775946203658304,0.16754470107618855,0.5172935558105364,0.6922631971833847],[0.14721257152847342,0.45754071026945353,0.4177012527807283,0.287070496845304,0.41265280306380564,0.33134252668024106,0.48763077509065134,0.1979756184114362,0.047942490640032684,0.32956047147191914,0.2918033219068497,0.49336453922763085,0.039817102754946536,0.4896324031289923,0.1381380222160774,0.4259891830666216,0.26508885694485484,0.40973687788398816,0.5084645384026459,0.2912701099370333,0.28678959986550856,0.2748902204402329,0.11994396616330459,0.17390994445585206,0.20236473900008684,0.37592469794627426,0.12121061041869181,0.43974634661014134,0.5112512639012333,0.3073531687106859,0.3616386938341167,0.4273755706171626,0.26404704989413236,0.4489634917999699,0.26594972844806214,0.593715735984583,0.36404088680460084,0.6129979297909172,0.17453323810662805,0.38821235695650314,0.45654068928262437,0.3385776464749202,0.3628748381075303,0.3289789966531072,0,0.3582723516744195,0.4096362842364615,0.5281100265699198,0.12168938005208332,0.011107470280143443,0.561286235391179,0.34724047043750617,0.15892231098571505,0.08048315360429868,0.04060790825803593,0.07154259949034752,0.36912768912480387,0.2717578079178135,0.30986648394455363,0.3210477680496398,0.29658622082565367,0.06545153056853965,0.06566854043023236,0.5398883547300392,0.10802311309703226,0.3984942471907079,0.3760402084860043,0.3908841204526628,0.24976213332804792,0.14425267947126608,0.08465732034927158,0.47061074285436083,0.5789917730057996,0.3117228283574544,0.06984706290531673,0.39169680125939377,0.2049464003613623,0.28720672279926496,0.37715509091907284,0.22541179504796094,0.27469675453398695,0.602182270549277,0.3103238579212607,0.36490322182149254,0.2728157310349964,0.26355600237407095,0.47797294437198906,0.2584255971079106,0.4313403309107752],[0.5283051049849689,0.5450700565321753,0.7964459214273755,0.5823760200889981,0.0729949359223598,0.3386803104516108,0.8686672912956269,0.47351974106116795,0.3070080787590285,0.6590927600988202,0.5258896272570023,0.8727920967778596,0.29576795097914554,0.4857521276427993,0.19967265755382899,0.3533347683624402,0.583430251299014,0.7781481325926561,0.4355360831688432,0.45931959781503917,0.5389506189098553,0.5416866178008513,0.26618889638992604,0.17546450658651785,0.5309481147430885,0.2696873554397939,0.45369992999828634,0.7380036755677258,0.5907007606973698,0.05553803747376169,0.6607422341173942,0.05820122533273558,0.6280459793324219,0.8248216532661176,0.11384676779562747,0.531712485506842,0.3995013998176735,0.6270601789951591,0.5274429869214866,0.4636844504269875,0.4355807499997754,0.5952083911868307,0.05613941073549321,0.7057637781917285,0.3582723516744195,0,0.6737221301181451,0.38326690615237685,0.36429549186954235,0.39115622163146124,0.5665382266103323,0.7148009788105604,0.3849021767849771,0.3515240727735462,0.38015431562857493,0.4521209759521061,0.7159503565480709,0.6206902470726632,0.4269120193193642,0.13212070945502272,0.6639622222455753,0.4307284996529629,0.4168405857304925,0.3458582370568737,0.4169104322882149,0.2862436006748767,0.6102466511825033,0.7502678886733416,0.3358659674561578,0.5117901107872382,0.457098291312955,0.7282168195659529,0.6681161448836159,0.6010263961374649,0.29499589066359816,0.01552413065387197,0.345299024469622,0.37524057487354906,0.7581683185158044,0.42348455528986545,0.6489756635584466,0.4790960075926097,0.046795119966249694,0.04631605835584156,0.25554474326137944,0.3429556905973735,0.8587064425738855,0.3920701616791503,0.2899801490485852],[0.3680783065926855,0.2630909638844107,0.37035331145483663,0.6244398559438005,0.6726649042152563,0.36966273958874063,0.4555359030105107,0.5847502073883986,0.4003489427486087,0.6045121104421921,0.6775076210810643,0.4223936920001575,0.44591579523775693,0.38362911903726105,0.5187723331243393,0.44749653174171455,0.13880422349469018,0.28720672279926496,0.4672695106582355,0.7067256884748356,0.11334983583331852,0.642603947115269,0.5450880835602975,0.488942725867734,0.5352939885669041,0.4760374145919215,0.49433295808014743,0.06717297250008267,0.285480897977614,0.5970485120606274,0.05613941073549321,0.7548134067895241,0.4906527216684868,0.35738151943699736,0.6461045179359198,0.4901290951994044,0.3316892005417171,0.4107798979627076,0.4838968217896177,0.27975010940133216,0.39641164428903264,0.056025988825326646,0.7173071970525706,0.315435224777124,0.4096362842364615,0.6737221301181451,0,0.5505598835244948,0.5482161233772092,0.3871556320090928,0.3968875333766418,0.26115111633411847,0.581523264744621,0.5097564125127506,0.4578017062167009,0.38640273181820645,0.5936638427651665,0.5342038062412452,0.7356232188982661,0.7110072941079502,0.2526012540999502,0.43468378797112034,0.4548934452645925,0.6055801219661826,0.5093694199598672,0.48307792734779087,0.05132994566559709,0.5719913007879974,0.6822335953909676,0.44146386362671103,0.3285021977677001,0.03807901113461969,0.30089959744135675,0.07778646793463674,0.4974242140366214,0.6912011598419618,0.6364269201838239,0.7183698171271373,0.3943922623508591,0.6426577935744908,0.45238225517907954,0.5623806420338102,0.6601897292446048,0.6385278153761911,0.41507034646652813,0.3234025995888126,0.48906273647754156,0.6862245566450343,0.5156134914708245],[0.6586440886246246,0.28714893728006485,0.852891856001309,0.8346985011551654,0.3037801082966794,0.19220431018010123,0.9410914249057376,0.7347638831013004,0.45798006069462655,0.880004854566853,0.8176393763275364,0.9251333110427424,0.49174562938400046,0.16624324378736913,0.4545692117085691,0.09046197965108468,0.5619628204203271,0.7960193648353797,0.07395106267959645,0.780832652056278,0.46043304288613,0.8134583414512752,0.5427533286265389,0.3753852058207023,0.7532434781669274,0.13192244243007506,0.6708980512171128,0.6391157992732059,0.30282276836238475,0.33094126163352267,0.5857919161306536,0.435522123891659,0.8022410204572047,0.8622532080379406,0.4794196975240013,0.1419552064414407,0.20236473900008684,0.2692145523543883,0.7235676494032452,0.24793477018092488,0.13467548204043103,0.49381801491420974,0.46216702459075315,0.7652023875219649,0.5281100265699198,0.38326690615237685,0.5505598835244948,0,0.6288359025759714,0.5443981416420236,0.2184275570102017,0.74170526882124,0.6641317675012027,0.59446666094442,0.5854785389212369,0.603180666837035,0.9140905089449621,0.8188262332849626,0.7683143194619645,0.5261018137960841,0.7010482079748837,0.6155469410180183,0.6162742210150627,0.04544154182719918,0.6494993145702288,0.10841354375782379,0.47679613409149,0.9267371466185748,0.6758519315760897,0.687793055911567,0.5673345714850769,0.5803002235646162,0.3627553844059018,0.5356973895886895,0.5344587555632303,0.3656384899760604,0.6614327054896284,0.7218046975615166,0.8419625744145323,0.7249380526823221,0.7976618729795115,0.07294153811516195,0.43235072561562504,0.3140744569634825,0.23248068023997948,0.2670376735486765,0.9532821697563766,0.72095520716989,0.0818237892906621],[0.21211350193842726,0.5973209639685492,0.480104620637529,0.1978886850646326,0.44228722999369807,0.4516357467374288,0.5326463121526063,0.08927031562023127,0.16836950725174787,0.27200528541560665,0.1659927173507144,0.5497536216943979,0.12130826647552426,0.6179699951427008,0.1612722093432573,0.5371435709133925,0.3957793410131174,0.49524275772468274,0.6246296324374492,0.14801568422396827,0.4299180337918762,0.16504856686218464,0.07649439984744655,0.23487996191383437,0.14620899345789648,0.47403253801397605,0.08119866852219072,0.5693780163548099,0.6513545166535457,0.34028022534163427,0.4938204918301454,0.4145264668921795,0.2561232935110638,0.5186659960536216,0.23738499440983746,0.7154668997891279,0.4926202735005371,0.7475898335478504,0.1553178435327745,0.5243739552959799,0.5803426581578404,0.4800308262011435,0.3390623891187181,0.4028814493371863,0.12168938005208332,0.36429549186954235,0.5482161233772092,0.6288359025759714,0,0.13851904532101908,0.693420149991608,0.43752790244445455,0.015623910092306873,0.01881356424305835,0.06759821714942991,0.15154360744770196,0.3310099789135374,0.23897329447362137,0.1658096908650756,0.2700021335082068,0.39070777757438463,0.10325387354376703,0.08034689314951064,0.6282563261184138,0.04182543962148918,0.4976012862941661,0.5190250952572328,0.36991370089544173,0.11862078033181785,0.15824531268342568,0.20117415520581816,0.6089029833851722,0.7209293977509834,0.44845329041591847,0.0715425994903475,0.4022677988825766,0.06897363509398106,0.14847184916169923,0.4273784130173481,0.08279692339268156,0.28937005938351723,0.7114605733508348,0.30015168718372853,0.3951920019961