"trial_id","rt","stimulus","response","trial_type","trial_index","plugin_version","time_elapsed","language","participant_number","success","raw_payload","placements","dissimilarity_vector","n_words","trial_category","distance_matrix","value"
"consent_form","2171","
    <div style=""max-width:800px; margin:0 auto; text-align:left; font-size: 16px; padding: 10px 0;"">
      <h1>Informed Consent Form</h1>
      <p>You are being invited to participate in a research study titled <strong>""Reproducibility of Psychological Science and Instruction.""</strong> This study is being done by Dr. Bria Long from UC San Diego and associated graduate students in the Experimental Methods course. You were selected to participate in this study because you are an adult in the U.S. and have been a represented population in previous psychology studies.</p>
      
      <p>The purpose of this study is to better understand how well previously published studies in the psychological field replicate online and with different populations. Your participation in this research should last approximately <strong>5-30 minutes</strong>. If you agree to take part in this study, you may be asked to view a set of stimuli, including pictures, sounds, written text, or videos and then giving some responses via key-presses, verbally, or with paper-and-pencil. We may also observe your choices or preferences among an array of stimuli. These stimuli will be taken directly from or closely adapted from studies that already exist in the published psychological literature. Stimuli will include, e.g., pictures of objects and human faces, audio and video clips, short text passages, etc. None of the stimuli will be disturbing, threatening, or offensive. The online and in-person experiments described in this protocol will take no more than 30 minutes. An example game you might play would be to click on an image on the screen that matches a word you hear being said out loud. Your total expected time commitment for this study is between 5-30 minutes, and is specified in the study description.</p>
      
      <p>Your participation in this study is completely voluntary and you can withdraw at any time. Choosing not to participate or withdrawing will result in no penalty or loss of benefits to which you are entitled. You are free to skip any question that you choose.</p>
      
      <p>We will not be asking for any personally identifying information, and we will handle responses as confidentially as possible. Your SONA or Prolific IDs will never be tied to your responses on this survey. However, we cannot guarantee the confidentiality of information transmitted over the Internet. To minimize this risk, data containing anything that might be personally identifying (e.g. Prolific IDs or IP addresses) will be encrypted on transfer and storage and will only be accessible to qualified lab personnel. We will be keeping data collected as part of this experiment indefinitely. This anonymized data (containing neither Prolific IDs nor IP addresses) may be shared with the scientific community or with other participants to be used as stimuli in future studies.</p>
      
      <p>If you have questions about this project or if you have a research-related problem, you may contact the researcher(s), <strong>Dr. Bria Long, <a href=""mailto:brlong@ucsd.edu"">brlong@ucsd.edu</a></strong>. If you have any questions concerning your rights as a research subject, you may contact the UC San Diego Office of IRB Administration at <a href=""mailto:irb@ucsd.edu"">irb@ucsd.edu</a> or 858-246-4777.</p>
      
      <h3 style=""margin-top: 25px;"">Consent Statement</h3>
      <p style=""font-weight: bold;"">By participating in this research you are indicating that you are at least 18 years old, have read this consent form, and agree to participate in this research study. Please keep this consent form for your records.</p>
    </div>
  ","0","html-button-response","0","2.1.0","2181","en","jmp84lrck6_6qi80c","","","","","","","",""
"","1914","
    <div style=""display:flex; align-items:center; justify-content:center; height:100vh; font-family:sans-serif;"">
      <div style=""max-width:900px; margin:0 auto; text-align:center;"">
        <h1 style= ""font-size: 24px;"">Welcome! Thank you for participating in the study.</h1>
        <p style=""font-size:18px; line-height:1.6;"">
          In this task, you will be presented with <strong>90 words</strong> arranged <strong>outside a circle</strong>.<br>
          Your job is to <strong>drag these words into the circle</strong> and <strong>rearrange them</strong> based on their <strong>meaning similarity</strong>.<br><br>
          Words that are <strong>similar in meaning</strong> should be placed <strong>closer together</strong>.<br>
          Words that are <strong>different in meaning</strong> should be placed <strong>farther apart</strong>.<br><br>
          You can place the words <strong>anywhere inside the circle</strong>. There is no single correct answer — 
          we are interested in <strong>your personal judgment</strong> of how these words relate to each other.<br><br>
          <strong>You must move all words into the circle before you can finish.</strong><br>
          After the initial arrangement, you will arrange words from specific categories.
        </p>
        <p style=""font-size:16px; margin-top:30px;""><em>Press any key to continue.</em></p>
      </div>
    </div>
  ","Enter","html-keyboard-response","1","2.1.0","4096","en","jmp84lrck6_6qi80c","","","","","","","",""
"","1762","<p style='font-size:20px;'>Which is your first language or primary language of use?</p>","1","html-button-response","2","2.1.0","5860","en","jmp84lrck6_6qi80c","","","","","","","",""
"","891","","","fullscreen","3","2.1.0","7754","en","jmp84lrck6_6qi80c","true","{""placements"":[{""word"":""proud"",""x"":620.1,""y"":326.3,""cx"":643,""cy"":343.7,""angle_rad"":-0.021,""angle_deg"":358.8},{""word"":""refrigerator"",""x"":427.8,""y"":322.3,""cx"":467,""cy"":339.7,""angle_rad"":-0.088,""angle_deg"":355},{""word"":""rabbit"",""x"":379.5,""y"":276.3,""cx"":402,""cy"":293.7,""angle_rad"":-0.825,""angle_deg"":312.7},{""word"":""agreement"",""x"":588.5,""y"":366.3,""cx"":627,""cy"":383.7,""angle_rad"":0.121,""angle_deg"":6.9},{""word"":""lips"",""x"":596.5,""y"":331.3,""cx"":612,""cy"":348.7,""angle_rad"":-0.005,""angle_deg"":359.7},{""word"":""scissors"",""x"":525.7,""y"":351.3,""cx"":556,""cy"":368.7,""angle_rad"":0.091,""angle_deg"":5.2},{""word"":""giraffe"",""x"":555.7,""y"":392.3,""cx"":580,""cy"":409.7,""angle_rad"":0.254,""angle_deg"":14.6},{""word"":""system"",""x"":436.8,""y"":341.3,""cx"":464,""cy"":358.7,""angle_rad"":0.076,""angle_deg"":4.4},{""word"":""fault"",""x"":641.8,""y"":405.3,""cx"":660,""cy"":422.7,""angle_rad"":0.23,""angle_deg"":13.2},{""word"":""friendship"",""x"":510.7,""y"":381.3,""cx"":546,""cy"":398.7,""angle_rad"":0.244,""angle_deg"":14},{""word"":""method"",""x"":627.7,""y"":439.3,""cx"":656,""cy"":456.7,""angle_rad"":0.336,""angle_deg"":19.2},{""word"":""ant"",""x"":600.3,""y"":404.3,""cx"":615,""cy"":421.7,""angle_rad"":0.264,""angle_deg"":15.1},{""word"":""depressed"",""x"":430.3,""y"":577.3,""cx"":468,""cy"":594.7,""angle_rad"":1.121,""angle_deg"":64.3},{""word"":""sofa"",""x"":580.8,""y"":528.3,""cx"":599,""cy"":545.7,""angle_rad"":0.666,""angle_deg"":38.2},{""word"":""violence"",""x"":584.3,""y"":470.3,""cx"":615,""cy"":487.7,""angle_rad"":0.479,""angle_deg"":27.5},{""word"":""chopsticks"",""x"":558.3,""y"":438.3,""cx"":596,""cy"":455.7,""angle_rad"":0.406,""angle_deg"":23.3},{""word"":""concept"",""x"":508.5,""y"":429.3,""cx"":538,""cy"":446.7,""angle_rad"":0.475,""angle_deg"":27.2},{""word"":""sparrow"",""x"":515.1,""y"":516.3,""cx"":545,""cy"":533.7,""angle_rad"":0.756,""angle_deg"":43.3},{""word"":""chair"",""x"":546.8,""y"":468.3,""cx"":567,""cy"":485.7,""angle_rad"":0.559,""angle_deg"":32},{""word"":""business"",""x"":431.4,""y"":417.3,""cx"":464,""cy"":434.7,""angle_rad"":0.639,""angle_deg"":36.6},{""word"":""magic power"",""x"":316.3,""y"":458.3,""cx"":361,""cy"":475.7,""angle_rad"":1.483,""angle_deg"":85},{""word"":""result"",""x"":348.9,""y"":614.3,""cx"":371,""cy"":631.7,""angle_rad"":1.496,""angle_deg"":85.7},{""word"":""hostility"",""x"":523.7,""y"":320.8,""cx"":552,""cy"":338.2,""angle_rad"":-0.058,""angle_deg"":356.7},{""word"":""dispute"",""x"":160.4,""y"":417.8,""cx"":188,""cy"":435.2,""angle_rad"":2.657,""angle_deg"":152.3},{""word"":""relationship"",""x"":31.2,""y"":336.8,""cx"":72,""cy"":354.2,""angle_rad"":3.126,""angle_deg"":179.1},{""word"":""pencil"",""x"":65.7,""y"":368.8,""cx"":89,""cy"":386.2,""angle_rad"":3.004,""angle_deg"":172.1},{""word"":""anger"",""x"":177.1,""y"":498.8,""cx"":200,""cy"":516.2,""angle_rad"":2.305,""angle_deg"":132.1},{""word"":""team"",""x"":101.4,""y"":428.8,""cx"":122,""cy"":446.2,""angle_rad"":2.742,""angle_deg"":157.1},{""word"":""washing machine"",""x"":15.9,""y"":403.8,""cx"":75,""cy"":421.2,""angle_rad"":2.888,""angle_deg"":165.5},{""word"":""thigh"",""x"":171.8,""y"":596.8,""cx"":192,""cy"":614.2,""angle_rad"":2.11,""angle_deg"":120.9},{""word"":""charity"",""x"":95.4,""y"":260.8,""cx"":121,""cy"":278.2,""angle_rad"":-2.838,""angle_deg"":197.4},{""word"":""finger"",""x"":213.5,""y"":622.8,""cx"":236,""cy"":640.2,""angle_rad"":1.945,""angle_deg"":111.4},{""word"":""characteristic"",""x"":159.8,""y"":474.8,""cx"":206,""cy"":492.2,""angle_rad"":2.362,""angle_deg"":135.4},{""word"":""cat"",""x"":123.7,""y"":467.8,""cx"":138,""cy"":485.2,""angle_rad"":2.574,""angle_deg"":147.5},{""word"":""eye"",""x"":73.7,""y"":511.8,""cx"":90,""cy"":529.2,""angle_rad"":2.538,""angle_deg"":145.4},{""word"":""bed"",""x"":86.3,""y"":462.8,""cx"":103,""cy"":480.2,""angle_rad"":2.656,""angle_deg"":152.2},{""word"":""computer mouse"",""x"":157.9,""y"":452.8,""cx"":215,""cy"":470.2,""angle_rad"":2.414,""angle_deg"":138.3},{""word"":""microwave"",""x"":88.6,""y"":549.8,""cx"":127,""cy"":567.2,""angle_rad"":2.369,""angle_deg"":135.8},{""word"":""reason"",""x"":128.6,""y"":580.8,""cx"":155,""cy"":598.2,""angle_rad"":2.237,""angle_deg"":128.2},{""word"":""hammer"",""x"":27.3,""y"":441.8,""cx"":58,""cy"":459.2,""angle_rad"":2.784,""angle_deg"":159.5},{""word"":""spoon"",""x"":132.9,""y"":503.8,""cx"":157,""cy"":521.2,""angle_rad"":2.416,""angle_deg"":138.4},{""word"":""fate"",""x"":215.3,""y"":199.8,""cx"":232,""cy"":217.2,""angle_rad"":-2.297,""angle_deg"":228.4},{""word"":""arm"",""x"":476.9,""y"":350.8,""cx"":494,""cy"":368.2,""angle_rad"":0.126,""angle_deg"":7.2},{""word"":""rat"",""x"":130.8,""y"":443.8,""cx"":144,""cy"":461.2,""angle_rad"":2.647,""angle_deg"":151.6},{""word"":""excited"",""x"":131.8,""y"":113.8,""cx"":159,""cy"":131.2,""angle_rad"":-2.288,""angle_deg"":228.9},{""word"":""ear"",""x"":132.9,""y"":75.8,""cx"":148,""cy"":93.2,""angle_rad"":-2.237,""angle_deg"":231.8},{""word"":""society"",""x"":464.2,""y"":227.8,""cx"":491,""cy"":245.2,""angle_rad"":-0.639,""angle_deg"":323.4},{""word"":""toothbrush"",""x"":209.9,""y"":259.8,""cx"":248,""cy"":277.2,""angle_rad"":-2.522,""angle_deg"":215.5},{""word"":""process"",""x"":248.5,""y"":230.8,""cx"":278,""cy"":248.2,""angle_rad"":-2.186,""angle_deg"":234.7},{""word"":""splendor"",""x"":308.2,""y"":213.8,""cx"":340,""cy"":231.2,""angle_rad"":-1.655,""angle_deg"":265.2},{""word"":""air conditioner"",""x"":74,""y"":210.8,""cx"":123,""cy"":228.2,""angle_rad"":-2.649,""angle_deg"":208.2},{""word"":""tortoise"",""x"":154.1,""y"":191.8,""cx"":182,""cy"":209.2,""angle_rad"":-2.444,""angle_deg"":220},{""word"":""status"",""x"":144.3,""y"":250.8,""cx"":168,""cy"":268.2,""angle_rad"":-2.719,""angle_deg"":204.2},{""word"":""trauma"",""x"":88.2,""y"":167.8,""cx"":115,""cy"":185.2,""angle_rad"":-2.53,""angle_deg"":215},{""word"":""death"",""x"":239.5,""y"":200.8,""cx"":262,""cy"":218.2,""angle_rad"":-2.159,""angle_deg"":236.3},{""word"":""happy"",""x"":282.9,""y"":179.8,""cx"":307,""cy"":197.2,""angle_rad"":-1.845,""angle_deg"":254.3},{""word"":""identity"",""x"":248.8,""y"":109.8,""cx"":276,""cy"":127.2,""angle_rad"":-1.891,""angle_deg"":251.6},{""word"":""marriage"",""x"":182.4,""y"":145.8,""cx"":215,""cy"":163.2,""angle_rad"":-2.197,""angle_deg"":234.1},{""word"":""error"",""x"":259.2,""y"":151.8,""cx"":279,""cy"":169.2,""angle_rad"":-1.945,""angle_deg"":248.6},{""word"":""ankle"",""x"":266.3,""y"":56.8,""cx"":288,""cy"":74.2,""angle_rad"":-1.792,""angle_deg"":257.3},{""word"":""tiger"",""x"":190.4,""y"":108.8,""cx"":209,""cy"":126.2,""angle_rad"":-2.133,""angle_deg"":237.8},{""word"":""apathy"",""x"":94,""y"":138.8,""cx"":120,""cy"":156.2,""angle_rad"":-2.441,""angle_deg"":220.1},{""word"":""disease"",""x"":185.9,""y"":68.8,""cx"":215,""cy"":86.2,""angle_rad"":-2.044,""angle_deg"":242.9},{""word"":""broom"",""x"":387.2,""y"":230.8,""cx"":412,""cy"":248.2,""angle_rad"":-1.024,""angle_deg"":301.3},{""word"":""sad"",""x"":309.7,""y"":68.8,""cx"":326,""cy"":86.2,""angle_rad"":-1.661,""angle_deg"":264.8},{""word"":""key"",""x"":461.1,""y"":59.8,""cx"":477,""cy"":77.2,""angle_rad"":-1.135,""angle_deg"":295},{""word"":""heaven"",""x"":343,""y"":149.8,""cx"":371,""cy"":167.2,""angle_rad"":-1.456,""angle_deg"":276.6},{""word"":""obligation"",""x"":338,""y"":32.8,""cx"":373,""cy"":50.2,""angle_rad"":-1.494,""angle_deg"":274.4},{""word"":""data"",""x"":437.4,""y"":108.8,""cx"":456,""cy"":126.2,""angle_rad"":-1.128,""angle_deg"":295.3},{""word"":""loving heart"",""x"":351.8,""y"":73.8,""cx"":393,""cy"":91.2,""angle_rad"":-1.406,""angle_deg"":279.4},{""word"":""content"",""x"":415,""y"":22.8,""cx"":443,""cy"":40.2,""angle_rad"":-1.279,""angle_deg"":286.7},{""word"":""phenomenon"",""x"":324.1,""y"":123.8,""cx"":370,""cy"":141.2,""angle_rad"":-1.475,""angle_deg"":275.5},{""word"":""cabinet"",""x"":478.4,""y"":86.8,""cx"":506,""cy"":104.2,""angle_rad"":-1.005,""angle_deg"":302.4},{""word"":""miracle"",""x"":493.4,""y"":110.8,""cx"":521,""cy"":128.2,""angle_rad"":-0.914,""angle_deg"":307.6},{""word"":""fear"",""x"":442.9,""y"":142.8,""cx"":460,""cy"":160.2,""angle_rad"":-1.046,""angle_deg"":300.1},{""word"":""knee"",""x"":475.8,""y"":138.8,""cx"":496,""cy"":156.2,""angle_rad"":-0.925,""angle_deg"":307},{""word"":""comfortable"",""x"":513.4,""y"":149.8,""cx"":555,""cy"":167.2,""angle_rad"":-0.728,""angle_deg"":318.3},{""word"":""debt"",""x"":284.4,""y"":7.8,""cx"":303,""cy"":25.2,""angle_rad"":-1.714,""angle_deg"":261.8},{""word"":""elephant"",""x"":505.1,""y"":252.8,""cx"":537,""cy"":270.2,""angle_rad"":-0.403,""angle_deg"":336.9},{""word"":""effect"",""x"":592,""y"":194.8,""cx"":614,""cy"":212.2,""angle_rad"":-0.481,""angle_deg"":332.4},{""word"":""discipline"",""x"":519.2,""y"":210.8,""cx"":553,""cy"":228.2,""angle_rad"":-0.54,""angle_deg"":329},{""word"":""television"",""x"":435.8,""y"":189.8,""cx"":470,""cy"":207.2,""angle_rad"":-0.872,""angle_deg"":310},{""word"":""shoulder"",""x"":373.2,""y"":183.8,""cx"":405,""cy"":201.2,""angle_rad"":-1.217,""angle_deg"":290.3},{""word"":""nose"",""x"":556.8,""y"":180.8,""cx"":577,""cy"":198.2,""angle_rad"":-0.589,""angle_deg"":326.2},{""word"":""ax"",""x"":587.6,""y"":236.8,""cx"":600,""cy"":254.2,""angle_rad"":-0.366,""angle_deg"":339},{""word"":""scenery"",""x"":584.5,""y"":289.8,""cx"":614,""cy"":307.2,""angle_rad"":-0.161,""angle_deg"":350.8},{""word"":""panda"",""x"":439.5,""y"":268.8,""cx"":464,""cy"":286.2,""angle_rad"":-0.51,""angle_deg"":330.8},{""word"":""fraud"",""x"":491.1,""y"":279.8,""cx"":512,""cy"":297.2,""angle_rad"":-0.315,""angle_deg"":341.9},{""word"":""table"",""x"":634.8,""y"":248.3,""cx"":655,""cy"":265.7,""angle_rad"":-0.27,""angle_deg"":344.6}],""n_words"":89,""words"":[""proud"",""refrigerator"",""rabbit"",""agreement"",""lips"",""scissors"",""giraffe"",""system"",""fault"",""friendship"",""method"",""ant"",""depressed"",""sofa"",""violence"",""chopsticks"",""concept"",""sparrow"",""chair"",""business"",""magic power"",""result"",""hostility"",""dispute"",""relationship"",""pencil"",""anger"",""team"",""washing machine"",""thigh"",""charity"",""finger"",""characteristic"",""cat"",""eye"",""bed"",""computer mouse"",""microwave"",""reason"",""hammer"",""spoon"",""fate"",""arm"",""rat"",""excited"",""ear"",""society"",""toothbrush"",""process"",""splendor"",""air conditioner"",""tortoise"",""status"",""trauma"",""death"",""happy"",""identity"",""marriage"",""error"",""ankle"",""tiger"",""apathy"",""disease"",""broom"",""sad"",""key"",""heaven"",""obligation"",""data"",""loving heart"",""content"",""phenomenon"",""cabinet"",""miracle"",""fear"",""knee"",""comfortable"",""debt"",""elephant"",""effect"",""discipline"",""television"",""shoulder"",""nose"",""ax"",""scenery"",""panda"",""fraud"",""table""],""distance_matrix"":[[0,0.253067841223142,0.3661771120916823,0.03848374882176661,0.01963288702444128,0.11504379564899295,0.11620693262458978,0.25884855878589297,0.09936960460666497,0.1489138667377171,0.1525248264112259,0.10270217476089309,0.4627685554923172,0.30259865481381093,0.20570380863374907,0.16497825507597438,0.20633005141151695,0.31397369751147497,0.2288819613997016,0.2930234261816539,0.47145280573614257,0.6082695598805047,0.11608527956247137,0.7179592034346373,0.8906208281849166,0.8656566183872023,0.7361811809434543,0.825890164065003,0.8941168741455794,0.817681102038247,0.8179925215953832,0.7816087236941345,0.7138167081121995,0.8153394950870142,0.9102882171144915,0.8678468797233502,0.6892226368633847,0.8764632359219849,0.8571817524965496,0.9312840090614084,0.8039619109526768,0.6629558906551852,0.2126495928658186,0.7962925573071271,0.8220291039703791,0.8642802570137383,0.26126540287287925,0.6153983904885748,0.5778409214564028,0.4905706387249287,0.8286106129645519,0.7439597853627458,0.7451586088154877,0.8586349670014617,0.6163324428585528,0.5605120758758941,0.6566183245718061,0.7185970175778569,0.6204131704673844,0.6882619372747659,0.7524011255190763,0.8656028825768397,0.7750586458353897,0.37235883151639415,0.6280623795567296,0.475660105695789,0.4922431687084969,0.6125617969580556,0.43186812508053685,0.5423989474866246,0.5555468721903049,0.5175121153810548,0.41424274072505857,0.3686063707535795,0.3871939480468503,0.3534640327566388,0.2872425139792631,0.7208138479792575,0.1771263657488338,0.18627756330376738,0.2052647267612893,0.3245948183779991,0.41663734762691484,0.22680069208353915,0.12920216207211505,0.04419162951715105,0.2723746368338618,0.19329512449371425,0.09631824004481111],[0.253067841223142,0,0.09746845893847719,0.23675876160487136,0.2034154915617141,0.12002226231945595,0.1834775898788612,0,0.3080113597275205,0.12808287150707798,0.3276892619378683,0.24201726522090197,0.3804917672096048,0.36380629492848543,0.30674150310779563,0.24893545210338525,0.17619687607246468,0.3064020676139971,0.25454907157055406,0.12234911247967811,0.2472325603521986,0.4650155690571999,0.10615554933776038,0.44486817225634034,0.6068568940743059,0.5835905587478062,0.485492826173521,0.5516600187570367,0.6151142838054253,0.5960268141508671,0.5361010983948958,0.5806490508520133,0.4568022216899433,0.5495195689221272,0.6499158921371817,0.5986401258930042,0.4269441807228195,0.629169868337948,0.6228473916900245,0.6566183245718061,0.5486912772465093,0.3966461284304735,0.032314709978019045,0.5258899873853433,0.5692054059897704,0.6195670477812022,0.1263073097266884,0.33650123958100975,0.3078394383563015,0.23852903266867873,0.55255550634673,0.4748292967009733,0.46510284941810703,0.589343585157708,0.3535385355166026,0.3147362413030203,0.4300698194964649,0.4654780457115049,0.37855137935392513,0.48571967824514384,0.5094068403825762,0.6024443006926384,0.5458178821499073,0.14124817277962293,0.4370936622255676,0.392899762363759,0.28755331380623017,0.46017801298685634,0.3139708666477033,0.38740251244469315,0.45385430329553084,0.32550907946382335,0.35419489067157256,0.32123578192879465,0.25886315811475424,0.26877377902815863,0.2814786351170254,0.5413761100953446,0.12815037357317072,0.28299588067324405,0.1962076801730835,0.18284684448292476,0.21384900592318135,0.2582020821379289,0.22412516568575327,0.21192174324336122,0.05543357041934257,0.06884957519327808,0.2950184889428661],[0.3661771120916823,0.09746845893847719,0,0.36004502947915995,0.3192961646975835,0.2453967295552625,0.31183828835332184,0.11392523144261434,0.43447633682021575,0.2565710439878519,0.4560214641717694,0.37000101657081674,0.46626621491284437,0.48516938972369067,0.4339165153785805,0.3768492604114881,0.2993234449550582,0.4198221672940188,0.37751597824454014,0.2175369588072671,0.2700383291860412,0.5167275497364685,0.221462548636792,0.38299116249250387,0.5104034859430205,0.49568850546646465,0.4539456061398835,0.4835099315003992,0.5353819435627855,0.5873377988811617,0.4231380715955096,0.5890160386977307,0.41915518789374817,0.4953002062539666,0.5998137196771909,0.5376717947318544,0.38394308923276693,0.5948877312263813,0.6017202832183969,0.5850296242861664,0.5085266283082586,0.2698100852110333,0.16000738790233798,0.4653836174088783,0.4407292456042046,0.491196906682462,0.13253199524698928,0.2189122623489105,0.1821210891120259,0.11103303810464522,0.4314628489083455,0.34929255373471696,0.3488334655632142,0.4641254825893087,0.225656727869155,0.18749657826556357,0.30593188713657193,0.3369686348358393,0.25140024048282605,0.368123822339368,0.38137447544715164,0.47527959462872316,0.4197535638346715,0.044139683841857374,0.3255857706856558,0.33872667070723966,0.1791496510943378,0.3647064764065883,0.25297730037977756,0.29608411577691623,0.3833841364997648,0.22042896681482738,0.3178108117097681,0.29792606014028883,0.20386080199447956,0.23775983426085287,0.2893426911160603,0.4307922378064539,0.19010295102744953,0.33550426943168027,0.23458724619850524,0.14652627030310786,0.1183165532885019,0.29069741931419973,0.29479575327776925,0.31178606220138066,0.0697450833857929,0.14657026756624722,0.379753803517577],[0.03848374882176661,0.23675876160487136,0.36004502947915995,0,0.0304105427660798,0.08606953991762122,0.055640385028184546,0.23509050239699805,0.05140558442541206,0.10190135664351413,0.09572380912102803,0.03326843160512755,0.39533711754364254,0.23427698122629576,0.13791091754741033,0.0954667274861536,0.14493319294605939,0.24484501424823615,0.15993750814335878,0.24459000394818248,0.4231918295312408,0.5441760468948978,0.11052801596130071,0.6822953423521934,0.8659078268925954,0.8372173796979758,0.6904853363804482,0.7901689356449867,0.8618552166131466,0.7634484624342165,0.8031255584475027,0.7236335372102621,0.6705886031197205,0.7749504002472006,0.8668423436651486,0.8288347830469612,0.6483593447701269,0.8285075962979906,0.8056632365863752,0.8952858512318358,0.759259339390688,0.6607456645254646,0.18505167184788113,0.7584168678764259,0.8271551149987327,0.8730458494639641,0.28221947014322146,0.6042958294718029,0.5731518194007477,0.4934586871150358,0.8201707982268295,0.7403622655755572,0.7328061970260936,0.8551738138381024,0.615736737647293,0.5666965287752185,0.6705514813740732,0.7231001443676868,0.6286923560922254,0.7097670744825388,0.7612736715421955,0.8657771491682582,0.7890883137963641,0.3790946925095858,0.6519552646792366,0.5196610995385204,0.51003778103814,0.6455011855994766,0.46780945043463784,0.5734771905750833,0.5978371866190312,0.5392084783135184,0.46048279002275166,0.4153731021802202,0.41922171337890085,0.3926262865499978,0.337170281192937,0.7487957897278732,0.2027271352935231,0.24652619426645764,0.24687784458757503,0.35018516075969514,0.4327534320613421,0.2790104010509877,0.18244462941949582,0.09418640172188399,0.27548325603032475,0.20119014989549192,0.1646790720659903],[0.01963288702444128,0.2034154915617141,0.3192961646975835,0.0304105427660798,0,0.06492337470048774,0.0801253290968606,0.20835130701405147,0.11130546248679664,0.10258528163791267,0.15716255909280918,0.08686743937271899,0.4289805263579659,0.28757681593045975,0.19333430398524387,0.14355879308135053,0.16713875293312302,0.28649596840716335,0.201676094943239,0.24520351883113306,0.42293373338383017,0.5688446137180752,0.06725949690451656,0.6673236596345519,0.8404809061389227,0.8151671528926704,0.6867123459641122,0.7752460217470063,0.8434568093892288,0.7708473523346392,0.7694836723829159,0.7367631544339939,0.6639028524415064,0.7650089970469415,0.8603283634984139,0.8173772427930464,0.6389888273067739,0.8274388273999749,0.8092430953982673,0.8806408973652775,0.7542589448639624,0.6179015942396707,0.1619739904491492,0.745753973868623,0.7799308013410371,0.8238041584605643,0.2259254597725778,0.5676239070147912,0.5318556771906492,0.4471312179600208,0.7817369116801646,0.6985173627249639,0.6971881222071803,0.8133276755925077,0.5717902554941195,0.5185604097999548,0.6184351644332576,0.6761458459433382,0.5794727455057491,0.6542755590311463,0.7118805469456939,0.8215832355941516,0.7370463463474676,0.330186288415362,0.5954596101832883,0.4582948035291667,0.45585633637494766,0.5860792892634219,0.4075033218299187,0.5144936127367951,0.5366404401426882,0.48341881292019395,0.3990297042850484,0.35392436433814767,0.3597493956978222,0.3316685340668539,0.27597567825639413,0.6909328020200954,0.14417117490805725,0.18927108432007417,0.18548513193386615,0.2924774573779445,0.37915819090284647,0.2183228427829165,0.12269044364295995,0.036009469623713965,0.22823108352251442,0.15048635900050183,0.11981522895097817],[0.11504379564899295,0.12002226231945595,0.2453967295552625,0.08606953991762122,0.06492337470048774,0,0.04562757558998121,0.11830565423290085,0.15807370414290772,0.01999138700802311,0.18393239796337257,0.09695061341975926,0.36036123510271423,0.2629169105115154,0.18331362274086271,0.12349097363404794,0.09814561110177356,0.23583323839209255,0.15861005049344257,0.15168580101619164,0.32792151690591376,0.4878892756299148,0.018600894665486794,0.5724725003106379,0.7504105838655896,0.7231536732952882,0.5908489144698914,0.6804472887378343,0.7498287754619787,0.6775200761365167,0.6860134833226632,0.6462207018483077,0.5679370622777347,0.6692565593044885,0.7643674689056776,0.7218506321946327,0.54314106624762,0.7318201521859126,0.7146030382183939,0.7858171466034614,0.6583130316348234,0.5461834789382172,0.06901890686610783,0.6504148416260906,0.7155525182033605,0.763463214243617,0.19418730133068682,0.4874932525675484,0.45794072787234996,0.38218518531356066,0.703620638894173,0.625133676622449,0.6157951248995532,0.739818486589672,0.5019825426767548,0.45689831070046427,0.5656935160801697,0.6114864855587532,0.5198667908233704,0.6115736304617708,0.6521611544402223,0.7517193193992295,0.6835976165860564,0.2719838171798417,0.5568640990754181,0.4563642431497996,0.41041857114437064,0.5617721415662524,0.39228496240003685,0.48834392141866506,0.5295954962332096,0.44319881305476294,0.4033801157431091,0.36117636635683753,0.33939872388221404,0.325308143281345,0.29415166020096917,0.6574510680578567,0.130851508828458,0.23831155787305278,0.19575452060146095,0.2642440351369175,0.3329050909535253,0.24619758488114202,0.1669168570032728,0.1053845508876309,0.16838496998966773,0.10444587288057361,0.19951728564969878],[0.11620693262458978,0.1834775898788612,0.31183828835332184,0.055640385028184546,0.0801253290968606,0.04562757558998121,0,0.17345788856055114,0.09975846529980134,0.026628117327487714,0.11316868225063617,0.028669416192704817,0.31797035898276677,0.1905720746816131,0.10692931831821104,0.04755659142162439,0.059289317856443,0.17689320858380433,0.09339095509396658,0.16046183481232015,0.33809132032260425,0.4610223119084596,0.0928797151320905,0.6029230960874792,0.793670783134465,0.7622641458089547,0.6058496529553216,0.7104435493321335,0.7841622638066903,0.6767808621350488,0.7395143435444104,0.6372275799114893,0.5870471148162211,0.6926101334814759,0.7829200936305424,0.7471257685709608,0.566049124187362,0.7429576649244645,0.7192794163123191,0.8151656139649831,0.6749331300408034,0.6107746974598498,0.12306271089290019,0.677486993495278,0.783596567884912,0.8332276272620308,0.27079969359236983,0.5458494860802588,0.5216533106009044,0.45166324975243927,0.7625234686632829,0.6881695991479932,0.6719848106831507,0.8022805529728025,0.5680327159573227,0.5272771871891793,0.6386991724821193,0.6797605872759315,0.5907421102019129,0.6867558888973323,0.7224937934971576,0.8165925370797045,0.7560743277674824,0.3450436496447778,0.6327343751761333,0.5307186098804799,0.48560878523256645,0.6384405156741955,0.4683338855566567,0.5650144359812687,0.6049432053701931,0.5190696045909303,0.4762457398883211,0.4331267213639428,0.41576382697746017,0.3999431865627106,0.36238969058714493,0.733739889014262,0.2045417000959811,0.29238083663143644,0.2650939675554601,0.34086526286896124,0.4082598869187827,0.3103204859313644,0.22197775624687058,0.14323965360577914,0.24239971862751708,0.18110454354623617,0.23098273207220724],[0.25884855878589297,0,0.11392523144261434,0.23509050239699805,0.20835130701405147,0.11830565423290085,0.17345788856055114,0,0.301707545514313,0.11619808851832107,0.31684544077940124,0.23300761798412992,0.3498801655265557,0.3411723969765071,0.2894676546671996,0.23331814122127342,0.15451458862393724,0.28016642328560515,0.2328497519614707,0.09160954590882647,0.22052086892018657,0.4344008002399987,0.11477835541114975,0.4311727458785566,0.6016276644341532,0.575775656675685,0.46507397641188863,0.5386715677008835,0.6047957599817427,0.5712153617087764,0.5375481309568005,0.553576604722799,0.43776914837603936,0.5332928273674911,0.632298693666612,0.5836689475104004,0.40925478767841494,0.6085002041606169,0.5998900928354931,0.643955679982537,0.5295350999973648,0.4075151995935999,0.019741984893640183,0.5112350261319568,0.5830288332306521,0.6350414666240801,0.15724038538035556,0.3415369537257053,0.3181093202661578,0.25598749948573757,0.5582026921703103,0.48406136079588363,0.4684851127346092,0.5979510676799569,0.3660566118178092,0.33245396648492104,0.45024210392056857,0.4798652572884257,0.3963537215741514,0.5088523534275271,0.5258666042781147,0.6131685240298641,0.5646778846735404,0.16604659807946767,0.4619087554319597,0.42373979750702057,0.3125259819328318,0.48803794158053065,0.3443990450256833,0.41560932743213824,0.48408411353758807,0.35134822437808444,0.3852370942975707,0.35215449133046384,0.289371142387775,0.299816793316416,0.3111282811650977,0.5666115560499712,0.15410181828289546,0.30733565803290797,0.22388007918207314,0.21364685100633873,0.2403873256058422,0.2857373864353321,0.24575099100158784,0.22490481266641194,0.08596107272917453,0.09486051939215684,0.31180030648636325],[0.09936960460666497,0.3080113597275205,0.43447633682021575,0.05140558442541206,0.11130546248679664,0.15807370414290772,0.09975846529980134,0.301707545514313,0,0.1569687182386705,0.024206292115334038,0.0415981414795582,0.3849671896785166,0.19053093744826743,0.09654298936548138,0.08516535473685632,0.16962020284995516,0.2269004213538033,0.15024048990978264,0.28586377164326765,0.4590201245904321,0.5445426865344091,0.19026188793763152,0.7309610159905537,0.9243180521915533,0.8923458257553936,0.7265080564720414,0.8380359086544058,0.9130620347298001,0.7850228386922984,0.8695388608976362,0.7380070641674881,0.7101800611135779,0.817403335988727,0.9047701884266114,0.8726482099478309,0.6911997058794465,0.8601895617959692,0.831763315369185,0.942278490789978,0.7961414361539293,0.7351773849798183,0.25092494066608856,0.8040180538629067,0.9043957796191744,0.9515703501770894,0.3644892368820615,0.6741081044997039,0.6467242930175033,0.5708000595368123,0.8906886467765449,0.8138287675379379,0.8012000098603048,0.9283918585529399,0.691096923505731,0.6449639354333536,0.7509270134058225,0.8003091884348886,0.7074994547415617,0.7916028076743221,0.8400071072096079,0.9407868720336324,0.8693306106323926,0.45834004285485397,0.7341127064020556,0.5999272440024147,0.5914956308484126,0.7278528654290533,0.5497819513516434,0.6558983246254647,0.6786751621677954,0.6212042905531472,0.5399000050996112,0.4945153136788824,0.501542596249827,0.47396102045563543,0.41475716225141157,0.8312046843135179,0.2851448615422694,0.3166891223786687,0.3272143042766818,0.432613020008079,0.5140637638756436,0.35523464820538087,0.2576161956604738,0.16959586479361868,0.3544213103869935,0.28211968449431934,0.22245981241768556],[0.1489138667377171,0.12808287150707798,0.2565710439878519,0.10190135664351413,0.10258528163791267,0.01999138700802311,0.026628117327487714,0.11619808851832107,0.1569687182386705,0,0.16964616019013407,0.08633610905115359,0.30939890617764754,0.2211413003544718,0.1506996541835947,0.0913225394806665,0.0474902906034272,0.18683264236126546,0.11339425989017649,0.11348439236350603,0.29234761658260827,0.4392328346446285,0.06707385768030277,0.5497102004131601,0.7372853672335613,0.7067620367387529,0.5586688256979653,0.6575097006436079,0.7299469118253877,0.637792462502161,0.6818789889785427,0.6031449043922755,0.5380357597944193,0.6420429922710776,0.7344155931560233,0.6958904890722043,0.5154619193982654,0.6977905113398915,0.677363838974874,0.7625448015808717,0.6271370594368427,0.5542711800527889,0.0662474833794792,0.6255185781478255,0.7281959851582126,0.7786757067592059,0.2321047810191891,0.4883213552941633,0.4650004739034368,0.3974401008359807,0.7049842651771918,0.6312377313441585,0.6143237697220477,0.7451888073291377,0.5120269273113466,0.47345792290596794,0.5868996141056799,0.6245479551449964,0.5371586433359168,0.6380027106879045,0.668380154113352,0.760043300255539,0.7035993675449995,0.2941636735989672,0.5857267842161072,0.49962458516615094,0.437299468995008,0.5968694006683045,0.43209593707864674,0.523250851754593,0.5709277089280971,0.47231829397557257,0.4485995941850311,0.4073637340014966,0.3781187555825261,0.36854771355932764,0.34284536995024856,0.6880736273549704,0.17684466651248693,0.28932236723214744,0.2443501262444456,0.30145795943572395,0.36058492106410683,0.29637856865207696,0.21790994185348087,0.15293759570833562,0.19362575877594101,0.14170862321418726,0.24647340828633996],[0.1525248264112259,0.3276892619378683,0.4560214641717694,0.09572380912102803,0.15716255909280918,0.18393239796337257,0.11316868225063617,0.31684544077940124,0.024206292115334038,0.16964616019013407,0,0.055955298510897394,0.3453266145241345,0.13952186548491607,0.051909476657892036,0.06580140204227243,0.16007383518099655,0.1869760445204449,0.12002226231945595,0.2808435751604691,0.4460290171296577,0.5086925314042836,0.2234045522974218,0.7250351325509532,0.9258516746752082,0.8910559107986656,0.7111106341457062,0.8309191898292095,0.9083522071357627,0.7597469358456388,0.8791555732349963,0.7086429363984795,0.6974455838531264,0.8061953584118726,0.8898589389919714,0.8622212147015432,0.6809980019833706,0.8411097490777396,0.809125304182067,0.9340474079580351,0.7809674802182145,0.7548474158284547,0.2668696216014567,0.7952798330330375,0.9277509919697583,0.9770592080249867,0.40186966432575877,0.6883144379823255,0.6656396560123965,0.5954679245709975,0.9048522878016171,0.8319247980212413,0.8132274215144119,0.9458269543860889,0.7122362961970587,0.6708261357994263,0.7806611077607517,0.8238757542116346,0.7341076005417144,0.8255603323440116,0.8661168716605225,0.9606491067000915,0.89849961266503,0.4869203355081255,0.7696772319773967,0.646122631014154,0.6245757639239221,0.7683115558305693,0.5923923869681892,0.6956539810055626,0.7239233790602757,0.6561920999053499,0.5872030058743833,0.5421286413414194,0.5425624322117623,0.518377932244105,0.46378347447470863,0.8686708334586545,0.3259908649132906,0.369322597616105,0.37345492470139907,0.4711890438631616,0.5469793179471396,0.4051839627798198,0.3080276829230071,0.2195678565783468,0.3833558548209617,0.3157516098562329,0.2772064608052975],[0.10270217476089309,0.24201726522090197,0.37000101657081674,0.03326843160512755,0.08686743937271899,0.09695061341975926,0.028669416192704817,0.23300761798412992,0.0415981414795582,0.08633610905115359,0.055955298510897394,0,0.3353328085878186,0.17073335314949237,0.07547105110982093,0.03181429915648465,0.0996090404615666,0.18210734304344117,0.09806494382842869,0.21354970405760257,0.3880361283378839,0.48849621712182323,0.1377663353272639,0.6584150349057543,0.8520221080205443,0.8197729364198303,0.6558490338858833,0.7655666408814097,0.8404360781588727,0.7189808347444197,0.799153926803012,0.6749737104321047,0.6387555580707053,0.7455544516505654,0.8338075382644832,0.800623981276285,0.619224685687398,0.790776061967516,0.7640989209103446,0.8699060738902351,0.7253416543382544,0.6696525354582696,0.182469027658913,0.7317484521932431,0.8415202687670503,0.8904088629147608,0.3170709022755603,0.605495821395758,0.5806703398711849,0.5088499413713065,0.822172587364521,0.7473700592770918,0.7316972337862184,0.8615955732383002,0.626531338424131,0.5840522728942789,0.6936657035638588,0.737566672442042,0.6472582290190043,0.7390274648166897,0.7793541170584912,0.8754682479923425,0.811504275453348,0.3999220350521226,0.6835866829924955,0.5678761838002739,0.5379533729993172,0.6844881427945442,0.510502087737917,0.6114925658192395,0.6443221419008911,0.57000542825933,0.5107088527143312,0.4663218570980504,0.45954400114652244,0.4385046819574706,0.3909415937545701,0.7832016263683337,0.24395736300375295,0.3070623031230147,0.2968753547349685,0.3868014404857635,0.46037415206610327,0.3348286220482032,0.24035853757572817,0.15374979812825768,0.29637856865207696,0.22972854537221216,0.22886192015089865],[0.4627685554923172,0.3804917672096048,0.46626621491284437,0.39533711754364254,0.4289805263579659,0.36036123510271423,0.31797035898276677,0.3498801655265557,0.3849671896785166,0.30939890617764754,0.3453266145241345,0.3353328085878186,0,0.1946767839311824,0.26238482381052974,0.27390621839737544,0.23317524728395791,0.12749254260710724,0.2065932388518426,0.22725358209020766,0.22722333009260404,0.1365022340398887,0.404541656977152,0.4890079295343277,0.7166697515102056,0.6670532235438262,0.4196408870792052,0.5766056052737634,0.6622574994066323,0.4154897722442481,0.7269187939410303,0.35050271153446566,0.4229918178086928,0.5300807528964082,0.5880828426152949,0.5863155870747622,0.4240203306411653,0.521066308690905,0.4741234525784372,0.6658340280600288,0.4846904830301513,0.6874413420121461,0.3368943162152659,0.534491500530604,0.8679642197637164,0.9290309409366362,0.5342174130763749,0.5923422528590851,0.6067078491753315,0.5908991689554532,0.7812657213998571,0.7436152425499492,0.6845354608072175,0.8414799717484415,0.6615753258585965,0.6610844219260053,0.7845822866934145,0.7762064472573619,0.7203443153161541,0.85777680291204,0.8328915527270171,0.8724046413881279,0.8855627555560763,0.5354118307862713,0.8209965329709374,0.8042503829998198,0.676414647000746,0.8609724127702432,0.7252934456614393,0.7904955397690668,0.8647455787294586,0.7177314052301351,0.7629221353428807,0.7266610349372876,0.6702934309602677,0.6780712262647974,0.673019514081084,0.9258421482027734,0.504359303382047,0.6296943390402486,0.5761317942422975,0.5943319883880804,0.6120942270657538,0.6325872174699555,0.5583198125149031,0.4893383646152906,0.4668713984565524,0.45429991322132784,0.5796876115638611],[0.30259865481381093,0.36380629492848543,0.48516938972369067,0.23427698122629576,0.28757681593045975,0.2629169105115154,0.1905720746816131,0.3411723969765071,0.19053093744826743,0.2211413003544718,0.13952186548491607,0.17073335314949237,0.1946767839311824,0,0.06605655660158859,0.11428410869929716,0.1566220758611341,0.0582307276003173,0.07869875006962213,0.251016140316633,0.36932178444911795,0.36222001743580434,0.3123136553665381,0.655803531602046,0.873866508449946,0.8313330504921886,0.6146404948678942,0.7553327798591016,0.8381557748932598,0.6350316911026203,0.8529580457671254,0.5743102904133834,0.6090497493034436,0.7193210694109722,0.7908378590708115,0.7763758155210896,0.6005399227514961,0.7314837867258831,0.6904979702647353,0.8531392231077588,0.6833734444729306,0.7638515800321494,0.30178287393131936,0.7158141110428629,0.9445156473140112,1,0.48428884300725084,0.6821492811293791,0.6752761453331422,0.6264719239761414,0.8923585183661161,0.8337171881044082,0.7962295935148448,0.9429204948415355,0.7273378947601323,0.7027107384136275,0.8221191655162099,0.8436607981542971,0.7663884945646361,0.8805080458968497,0.8933423699472679,0.9653064707765598,0.9353769617638509,0.536048284197166,0.8315278285499689,0.75026058877187,0.6820634562099195,0.8478699172622352,0.6842205551497963,0.7742763655511599,0.8227218752189005,0.719112780789436,0.6971076467737315,0.6543971622302173,0.6303030703887824,0.619158595058352,0.5839125244661754,0.9352961081237328,0.4246923341122939,0.5077199139317115,0.48670407055147846,0.5535699221082999,0.6070222319135096,0.5308924452170004,0.43939687700017793,0.35462058484409564,0.4410327861079172,0.3938662684653422,0.42978378487719615],[0.20570380863374907,0.30674150310779563,0.4339165153785805,0.13791091754741033,0.19333430398524387,0.18331362274086271,0.10692931831821104,0.2894676546671996,0.09654298936548138,0.1506996541835947,0.051909476657892036,0.07547105110982093,0.26238482381052974,0.06605655660158859,0,0.02901734298717463,0.10974165148396907,0.10413554575098248,0.04648897503960144,0.22722333009260393,0.37933196749122444,0.42619788284291577,0.2307751544040055,0.6632598092014802,0.8713734315918721,0.8335018154873666,0.6402819982848414,0.7673987200229213,0.8470190293194949,0.6814879798245564,0.8349286008974114,0.6282638795253214,0.6290613731594823,0.7387737601896025,0.8188709375357612,0.7953365657899998,0.6151142838054253,0.7668978472271683,0.732446387069363,0.8690470814603447,0.710074639596459,0.7256773081632342,0.2434122440773168,0.7302822457908013,0.9030792876946511,0.9555448312712571,0.40851178590280474,0.6517493128340853,0.6361803104879766,0.5758529090755256,0.8666465240031354,0.7998171838123329,0.7726301261921439,0.9120669961390918,0.6856937762987139,0.6522354882738671,0.7675781094027951,0.8002073642459949,0.7161157010544547,0.8197346706716466,0.8462712277667609,0.9304067125806752,0.883601461901665,0.4756369746695517,0.7673204283886883,0.6678753974367887,0.6190324033810561,0.7758337119361921,0.6063013716838523,0.7023201817972043,0.7426631716420066,0.6538212562153445,0.6123816912186926,0.5686410637138163,0.5536991057873131,0.5373740400655468,0.49518143338015375,0.8693204861279636,0.34185837683054204,0.41357544608576446,0.3995381057865877,0.47854832662327246,0.5422308729364079,0.44017408924836887,0.346567589059749,0.2602612870213055,0.37532431652159937,0.3184560159936283,0.3330007934538562],[0.16497825507597438,0.24893545210338525,0.3768492604114881,0.0954667274861536,0.14355879308135053,0.12349097363404794,0.04755659142162439,0.23331814122127342,0.08516535473685632,0.0913225394806665,0.06580140204227243,0.03181429915648465,0.27390621839737544,0.11428410869929716,0.02901734298717463,0,0.06368046428564256,0.11935702067138163,0.03629532637461043,0.18466413348332686,0.3495826240204143,0.42996743243537333,0.17144365119698837,0.628238201581158,0.83033279881052,0.7948305611544028,0.6154568082979376,0.7340752626349709,0.8116140070858439,0.6693346568293885,0.7873095677055554,0.6217989962283712,0.6011087484705995,0.7096317053718636,0.7941348899490177,0.7655666408814097,0.5842787673020143,0.7469483587625334,0.7168978730595972,0.8372263787148512,0.6852793982246831,0.6712657303167348,0.18583968258882594,0.6984709516123009,0.8473852789889645,0.8990024224859665,0.34858999234350474,0.6001480419163278,0.5817529740468332,0.5184632539686624,0.8160131394695583,0.7465549002266184,0.7230587000077233,0.8595493331025709,0.6303641096014643,0.5947129439962247,0.7090653481003966,0.7441378791437434,0.6585283541769482,0.760247397833741,0.7892296213083249,0.8765608094478361,0.8255010403674437,0.41652679597500986,0.707511797578581,0.609277570371051,0.5594081395912942,0.7158036490885082,0.5467291864422955,0.6422809248179847,0.6835283676680954,0.5939695529514838,0.554524761680809,0.5111749864904204,0.4939326958280768,0.4785355490180292,0.4392307577923677,0.8093670683163886,0.2831036788541657,0.3630015614158587,0.3426084505540932,0.4186052530506655,0.482483915299783,0.38565295239863284,0.2942117227537687,0.21036777662984332,0.3156689873967156,0.258454098606684,0.2900319237308109],[0.20633005141151695,0.17619687607246468,0.2993234449550582,0.14493319294605939,0.16713875293312302,0.09814561110177356,0.059289317856443,0.15451458862393724,0.16962020284995516,0.0474902906034272,0.16007383518099655,0.0996090404615666,0.23317524728395791,0.1566220758611341,0.10974165148396907,0.06368046428564256,0,0.10981563187060289,0.04739073429232792,0.08994188948650594,0.25841698496179566,0.3711715339928215,0.14551130718535377,0.5341091234302059,0.7356836933964922,0.70012386635277,0.525850235518871,0.6403188540055732,0.7173017039531621,0.5893393869384728,0.6947968903193728,0.5478010603681851,0.5097633400704978,0.6174800445211462,0.7041185670375631,0.6730602047620251,0.4916081879766945,0.6601693959237969,0.6336616991459535,0.7438673620837694,0.5954783174004714,0.5862544114983466,0.11418774757660119,0.6052441336146497,0.7648012116521402,0.8184341426232071,0.3028766387853598,0.511052485002376,0.49686649049551823,0.4412506630153108,0.7258631446948194,0.6596058454794821,0.6319373712784858,0.7715307573070748,0.5472203332862702,0.5176925076686717,0.6357800811022655,0.6625391933922806,0.5815553075151233,0.6929555659758603,0.7102064141501712,0.790459080699523,0.7501155661371952,0.3483944148699426,0.6438939405028627,0.5733457703275042,0.4944112336436006,0.6620433354065879,0.502856469705548,0.5885685321902621,0.6426637616772239,0.5316196527104783,0.5241077185174694,0.48369971007068174,0.44815411863276344,0.44265479845049605,0.4208614963574558,0.7477748107209192,0.2538059904137014,0.3667839761298079,0.3224130494584992,0.37075122118312026,0.4195628635894705,0.37490750145358315,0.29533884156191315,0.2253318459743263,0.25418519227873176,0.21384900592318135,0.31677805463484776],[0.31397369751147497,0.3064020676139971,0.4198221672940188,0.24484501424823615,0.28649596840716335,0.23583323839209255,0.17689320858380433,0.28016642328560515,0.2269004213538033,0.18683264236126546,0.1869760445204449,0.18210734304344117,0.12749254260710724,0.0582307276003173,0.10413554575098248,0.11935702067138163,0.10981563187060289,0,0.054170683166535206,0.1753909820853165,0.2803086636899572,0.29124236291069455,0.28466674109761286,0.5666289873374781,0.7854264691996651,0.7424140269529578,0.5264508877298402,0.6660675765938051,0.7488926380815997,0.5532713540470623,0.7678634185814266,0.4964247457933979,0.5201362011438684,0.6304408928687033,0.7032944104975691,0.6874848407680597,0.5112974603083665,0.6457090389019398,0.60690792884337,0.7640448728516882,0.5954554529480554,0.687330770819256,0.24844314761530287,0.6266026286762902,0.8689617159028078,0.925970067204849,0.44263830340606086,0.6022798239469458,0.5998033982709639,0.5586886999778311,0.8097311330468844,0.7547363860331426,0.7131135505400558,0.8622080938562868,0.6529498243928663,0.6341219396481254,0.7556208747938257,0.7696772319773967,0.6971881222071803,0.8186288123027725,0.8213266028876055,0.8863438277203741,0.8662866846754825,0.47725360442956744,0.772999487724048,0.7138079664480049,0.6237071757934864,0.7971562516468911,0.642102966937522,0.7240423890175853,0.7822254430189322,0.6625016408048044,0.6649570553203221,0.6245181587156763,0.587141918116932,0.5832959818639123,0.5606529493182569,0.8777939235522694,0.39440226755776797,0.499624585166151,0.4621570173659104,0.5096019808196818,0.5511882740157193,0.5128607740774535,0.42867823439512237,0.35107909068287513,0.38923155705349394,0.35433008262370347,0.43648335828202134],[0.2288819613997016,0.25454907157055406,0.37751597824454014,0.15993750814335878,0.201676094943239,0.15861005049344257,0.09339095509396658,0.2328497519614707,0.15024048990978264,0.11339425989017649,0.12002226231945595,0.09806494382842869,0.2065932388518426,0.07869875006962213,0.04648897503960144,0.03629532637461043,0.04739073429232792,0.054170683166535206,0,0.1544443947106302,0.30180145884044407,0.36338391137829534,0.2082275197649151,0.5860117589826147,0.7955209203574763,0.7569126931010126,0.5632815704202104,0.6899436761408158,0.7697650503111477,0.608695652072968,0.7628204369424546,0.558467837008785,0.5516510792802419,0.6612988825494251,0.7419576146874911,0.7178357488861796,0.5375824847031476,0.6911293826777826,0.6582053451385668,0.7915189039616176,0.6331109503250383,0.6618178281008882,0.19220114040729536,0.652759407726164,0.8412336717402126,0.895505133774244,0.3760063294156431,0.5839866374357435,0.5726472553725339,0.5193228422429803,0.7972914664426903,0.733923766872374,0.7023397145677296,0.8449134669606164,0.6236733630383329,0.5957297713272929,0.7141348348863391,0.7394078651135787,0.6595568193598311,0.7713068074559982,0.7877438808956797,0.8651583493913925,0.8282530315860256,0.4266512136079076,0.7219198156841232,0.6440251301478545,0.5724983931423185,0.7383693513151013,0.5761618203895572,0.6647979973897078,0.7152576804201871,0.6094117841228824,0.5924613147861229,0.5506646594678599,0.5219194954645159,0.5129254156526889,0.483332741662407,0.8255998580484706,0.32009536461738225,0.41681475505729304,0.38513697619624826,0.44489553487508743,0.49731526007391363,0.4332192955432935,0.3463399080750653,0.26684776447478276,0.33129854110603785,0.2858524709534233,0.3513541840559872],[0.2930234261816539,0.12234911247967811,0.2175369588072671,0.24459000394818248,0.24520351883113306,0.15168580101619164,0.16046183481232015,0.09160954590882647,0.28586377164326765,0.11348439236350603,0.2808435751604691,0.21354970405760257,0.22725358209020766,0.251016140316633,0.22722333009260393,0.18466413348332686,0.08994188948650594,0.1753909820853165,0.1544443947106302,0,0.1478687784154899,0.3205317888613281,0.17972504786465476,0.41438017279842837,0.6147877090724515,0.5791911191540058,0.4148535502168883,0.5212054539023887,0.5971223708564375,0.4948942881988401,0.5774044584970419,0.46431742977281026,0.3955455165446592,0.501346947807977,0.5915060899913278,0.5561659376604547,0.37486900463870443,0.5533515813474614,0.5331428141566258,0.6253717866658699,0.48369971007068174,0.482176979169609,0.08669336092292647,0.4871566148950091,0.6633573351019516,0.7198363352867605,0.27787007723619594,0.40037807326358577,0.39404092524401585,0.35354192166276227,0.6123209700568607,0.5516756625114339,0.5170442431703063,0.661317691715649,0.44682065061001774,0.4284232201383939,0.5506154065083623,0.5634875029623664,0.4911944130810962,0.6163827306969171,0.614894569595958,0.6832531279940969,0.6601920037431427,0.28142029268556606,0.5738734327970008,0.5462895038148132,0.42600773448842694,0.6066241237490609,0.4669969227708511,0.5350323758629966,0.6065220046906479,0.4663218570980504,0.5066238432821424,0.47208281116112316,0.4120056990371628,0.4213712704520777,0.4249580024046844,0.6790713878913789,0.2594016964818325,0.40201703732320937,0.33185159483041493,0.33623540910696403,0.35763429760797766,0.39196183471714885,0.33368786050868027,0.2866691920946919,0.20861363320161672,0.20399381505465897,0.3805423942781368],[0.47145280573614257,0.2472325603521986,0.2700383291860412,0.4231918295312408,0.42293373338383017,0.32792151690591376,0.33809132032260425,0.22052086892018657,0.4590201245904321,0.29234761658260827,0.4460290171296577,0.3880361283378839,0.22722333009260404,0.36932178444911795,0.37933196749122444,0.3495826240204143,0.25841698496179566,0.2803086636899572,0.30180145884044407,0.1478687784154899,0,0.22123423346579557,0.3487683260527725,0.25570152654637324,0.4749013713012766,0.43107694373319627,0.23688151809460653,0.35759408978336876,0.4388235175226698,0.3215867897947223,0.47056635344807896,0.3023848886097455,0.220516986411985,0.32917184073843486,0.4147513198867248,0.38539348064384094,0.2047461384026803,0.3744420868689556,0.3557501120638831,0.45867787500156165,0.306271795767184,0.43519821190338503,0.24494530091775454,0.31994327636234554,0.6134555090168458,0.6755121021368898,0.3960336723394739,0.3375767757874135,0.3597793856506478,0.36499594374203864,0.5230981200570176,0.4870585971646715,0.4262925714379666,0.5832938620940031,0.41417839624211145,0.42678492088624725,0.5478707984501257,0.5256116647060101,0.48099826234755233,0.627540563944518,0.5840311009309905,0.6148219870154531,0.6402606598374706,0.34522020316132945,0.6000840803751218,0.6387691676740472,0.4670910452488966,0.6559229686690012,0.5534629898856627,0.5916274032101059,0.6841386205492436,0.5089849999284096,0.6125516799943235,0.5863598828461005,0.5026051792476911,0.5287214394475536,0.5570899927587458,0.7019969276840026,0.4056106476364739,0.55848992702918,0.47448164995312936,0.4366205198612724,0.4176136716669064,0.5364775441186898,0.49484228825823323,0.45952807398779566,0.31703723265793915,0.34627778941719417,0.5520370280787744],[0.6082695598805047,0.4650155690571999,0.5167275497364685,0.5441760468948978,0.5688446137180752,0.4878892756299148,0.4610223119084596,0.4344008002399987,0.5445426865344091,0.4392328346446285,0.5086925314042836,0.48849621712182323,0.1365022340398887,0.36222001743580434,0.42619788284291577,0.42996743243537333,0.3711715339928215,0.29124236291069455,0.36338391137829534,0.3205317888613281,0.22123423346579557,0,0.5254502205730296,0.40230261770222164,0.6272953259747059,0.5723602852006955,0.30197845255169153,0.4700598477302008,0.555133798655088,0.2592133217121585,0.6677039580237007,0.18725809223200376,0.3176577270325064,0.4131358897403349,0.45167673866871266,0.4657926771031395,0.3313308856505121,0.376262189485445,0.32171602044021214,0.5457253178205705,0.3576443489142385,0.6745087407438538,0.4382550073748094,0.42712896647154175,0.8461613778359456,0.9095851779649649,0.6220821889734558,0.5745253753486661,0.6058067127868545,0.6172370271137916,0.7333089649187655,0.7159222093244082,0.6408714472242587,0.7995773434780852,0.6590795756685236,0.6777405876167515,0.7974533807024081,0.7658592068311914,0.7299862698918826,0.8785945513131611,0.8256272209294095,0.8366937762912592,0.8846032563672854,0.5913952141342543,0.8523022563536483,0.8800407691849397,0.7185900688501922,0.9074160086252373,0.7962107034426638,0.8419649048962465,0.9305949655181904,0.7605518004324007,0.8476995091964322,0.8168229565257081,0.7433243627576096,0.7624151542339703,0.7752621728041387,0.9538895345680211,0.6109329407947223,0.7513482339232901,0.6833224035931507,0.6724199787451903,0.6658826126015899,0.7435345469673939,0.6815172215751251,0.6232117437277257,0.5463887435026559,0.5547893482185628,0.7165926794584816],[0.11608527956247137,0.10615554933776038,0.221462548636792,0.11052801596130071,0.06725949690451656,0.018600894665486794,0.0928797151320905,0.11477835541114975,0.19026188793763152,0.06707385768030277,0.2234045522974218,0.1377663353272639,0.404541656977152,0.3123136553665381,0.2307751544040055,0.17144365119698837,0.14551130718535377,0.28466674109761286,0.2082275197649151,0.17972504786465476,0.3487683260527725,0.5254502205730296,0,0.5768986043048681,0.744034976171919,0.7201740155829484,0.6055341796946379,0.6844658476463827,0.7503301734096576,0.7010400950253876,0.6712337437983802,0.6743772205230363,0.5801607967317473,0.6779587345875061,0.7757606775964041,0.7289498748993894,0.5530568033301727,0.7480736398400315,0.7348284661493626,0.7897656540439723,0.6715173994844794,0.5210751537098111,0.07434024432060103,0.6566784483402162,0.6858005125373672,0.7314748206419223,0.14845013427081855,0.469346625309279,0.43439520445009366,0.35220121636220014,0.6836955559012987,0.6013327376481544,0.5988877335865507,0.716184979827828,0.4754589589388241,0.425154297515827,0.5296320792503029,0.5817821935271861,0.4871258292718612,0.5714915304718747,0.6197066437588886,0.7254858315978064,0.6480655369130406,0.2375550699094043,0.5152396707502911,0.4072174160742103,0.3708087465801619,0.5162042776928211,0.344536896223516,0.4430278454419007,0.48104594628792935,0.40179671116888693,0.3538254056747671,0.31153811683252297,0.2923234544035461,0.27626715092606036,0.24496771295513003,0.6144362552039992,0.08133700895999098,0.1955865069803543,0.14648776375334208,0.21837375468831902,0.2932483830795514,0.19846998650136818,0.1250922311233743,0.08082597685420427,0.13391735031887433,0.06139830618488252,0.172233163476338],[0.7179592034346373,0.44486817225634034,0.38299116249250387,0.6822953423521934,0.6673236596345519,0.5724725003106379,0.6029230960874792,0.4311727458785566,0.7309610159905537,0.5497102004131601,0.7250351325509532,0.6584150349057543,0.4890079295343277,0.655803531602046,0.6632598092014802,0.628238201581158,0.5341091234302059,0.5666289873374781,0.5860117589826147,0.41438017279842837,0.25570152654637324,0.40230261770222164,0.5768986043048681,0,0.1972867459757192,0.1472270972732991,0.10110554015422203,0.0769402800410683,0.15271626823332674,0.25790816068750627,0.24443877534149666,0.3087441690725759,0.06542415468949918,0.08307337654159082,0.18810799969645203,0.12417205825446292,0.04029570438294877,0.203632009650996,0.2373513623456949,0.18230275941050594,0.11648966409277602,0.32787072397410866,0.47449388602619336,0.0514371678776293,0.4617944865237634,0.5246557713686316,0.5461400482337553,0.24171187127126248,0.30388033096825084,0.37952232311741274,0.31910653992428895,0.3338154819369355,0.24039572153950434,0.3892679638108901,0.3389651957608962,0.3983895653951126,0.4859130540074913,0.4100814195498025,0.4226668797891169,0.5734960394971561,0.46878677847718886,0.4324016196770123,0.5338734641452165,0.43987206928032657,0.5746237512408413,0.7114768368781303,0.4926828457597096,0.6582993356019621,0.6290687711244791,0.6152246166588907,0.7277237264586357,0.5269849711053595,0.7097209287012394,0.6999043172420185,0.5931830327141935,0.6396371807461249,0.7023499246725531,0.6561707817327442,0.5919655958794958,0.7449568358175338,0.64614715005419,0.5542038734995341,0.48398740744346785,0.7040826955920932,0.695198217166734,0.6868207448276628,0.4751426178027938,0.5372978585319339,0.7707320413616792],[0.8906208281849166,0.6068568940743059,0.5104034859430205,0.8659078268925954,0.8404809061389227,0.7504105838655896,0.793670783134465,0.6016276644341532,0.9243180521915533,0.7372853672335613,0.9258516746752082,0.8520221080205443,0.7166697515102056,0.873866508449946,0.8713734315918721,0.83033279881052,0.7356836933964922,0.7854264691996651,0.7955209203574763,0.6147877090724515,0.4749013713012766,0.6272953259747059,0.744034976171919,0.1972867459757192,0,0.027435373057598307,0.30216121471454516,0.13794174574438456,0.07719323919038884,0.43109314696193946,0.11489217463230977,0.5010184636014776,0.2793871310725416,0.20568730618895065,0.2528706773212625,0.17836600456102608,0.2661200996088894,0.32398186329406564,0.38489518553379526,0.1399108047072697,0.2713718812145613,0.30889743694100585,0.6503761431009301,0.17709352048348848,0.35526414589038974,0.40766587079723815,0.6676662170696355,0.27898834974655723,0.342841016168786,0.4448455969114783,0.18832775360419665,0.2626820243972406,0.17696208755745046,0.2503875336578001,0.3460456166751898,0.4250629415736701,0.461498453073323,0.354021606617203,0.41699717874646763,0.5396667370089002,0.39823184633850284,0.29775480636563684,0.4591875072285076,0.5437140198395162,0.5648587499935329,0.7608194956958843,0.5380992581427201,0.6593696395667403,0.6896812760458685,0.6386753530055761,0.7533559036119792,0.560104124075118,0.777262000036006,0.7801904965777261,0.6690403510833867,0.7241626735001816,0.8048281968971406,0.6177204617930413,0.7315431310044054,0.8731851980105608,0.7714102703175492,0.6536800568392849,0.5603794260731377,0.8219508648254508,0.836217532999805,0.8469459835357938,0.6110338512693649,0.6849843712897624,0.9206100329443637],[0.8656566183872023,0.5835905587478062,0.49568850546646465,0.8372173796979758,0.8151671528926704,0.7231536732952882,0.7622641458089547,0.575775656675685,0.8923458257553936,0.7067620367387529,0.8910559107986656,0.8197729364198303,0.6670532235438262,0.8313330504921886,0.8335018154873666,0.7948305611544028,0.70012386635277,0.7424140269529578,0.7569126931010126,0.5791911191540058,0.43107694373319627,0.5723602852006955,0.7201740155829484,0.1472270972732991,0.027435373057598307,0,0.24483085319347694,0.07946738342753416,0.029792903398593824,0.3727194198323134,0.15074264137276697,0.44257437968267577,0.22374594778287046,0.1472270972732991,0.1997431038235281,0.12233213211464647,0.21334730156420267,0.2674318913628858,0.32728972199295675,0.09695061341975926,0.2129046279237051,0.32623424772217136,0.6232112461174482,0.11905366342645933,0.39571262020116077,0.45130633097698597,0.6564739113684365,0.28006597913951947,0.34662879802484564,0.44504531733729163,0.22978222377694565,0.29163810748700664,0.19812929408040167,0.29604330917349453,0.3581357083786394,0.4345882203407603,0.4845054896261148,0.38231988650804316,0.43443157588200976,0.5661794244315274,0.43109314696193934,0.34349873324813496,0.494080890798112,0.5358134310802432,0.5859647999780566,0.7694409691127075,0.5451826145776029,0.6789627229822124,0.6948107947355847,0.6525913209617309,0.7678238889625896,0.5706134047013605,0.7813711218622149,0.7810103791748617,0.670038536186967,0.7234191033799867,0.7999202311863236,0.6462298351736767,0.7158049568408171,0.8615499819868871,0.7600066723356661,0.6483128616141571,0.5599014198695507,0.812937003091315,0.8207041768012215,0.8257666820349735,0.5952990169224992,0.6665619742118469,0.9028673612404178],[0.7361811809434543,0.485492826173521,0.4539456061398835,0.6904853363804482,0.6867123459641122,0.5908489144698914,0.6058496529553216,0.46507397641188863,0.7265080564720414,0.5586688256979653,0.7111106341457062,0.6558490338858833,0.4196408870792052,0.6146404948678942,0.6402819982848414,0.6154568082979376,0.525850235518871,0.5264508877298402,0.5632815704202104,0.4148535502168883,0.23688151809460653,0.30197845255169153,0.6055341796946379,0.10110554015422203,0.30216121471454516,0.24483085319347694,0,0.13809580244545477,0.22233649337666936,0.12764033071880365,0.3736601116799424,0.1773373902661611,0.00888141665325305,0.0808259768542043,0.14771585921326583,0.13593387332544069,0.047041287614081766,0.11267116511305386,0.1199101544918567,0.21589705103168402,0.03882008019631384,0.4542536264209277,0.5001562220478606,0.0956313198368444,0.5938023243905763,0.6567541873384695,0.6106970831036851,0.3623690026573213,0.4194147262747958,0.48140184612496983,0.45007093244659263,0.4652596529964738,0.37250972086260037,0.5204733692827225,0.4601826523151553,0.5119639774510368,0.6086137137342011,0.539159948676707,0.5432924359434385,0.696278679243129,0.5985258523523619,0.5641152665292712,0.6633343614837329,0.5204308655688465,0.692091225136475,0.8066832284539065,0.5961654205965851,0.7711635603749835,0.7218415513896781,0.7222531045455286,0.8314610201027841,0.6334339091316369,0.7971935951485708,0.781646781612796,0.6803992412103264,0.721114731783714,0.7723655557735793,0.7786045372061673,0.6423113857183768,0.7978725601782559,0.7041942898973272,0.6311880799336357,0.5754939239720847,0.7649186088855122,0.740647089891118,0.7174021926444728,0.5340255879850269,0.5841385411102105,0.8071886808312287],[0.825890164065003,0.5516600187570367,0.4835099315003992,0.7901689356449867,0.7752460217470063,0.6804472887378343,0.7104435493321335,0.5386715677008835,0.8380359086544058,0.6575097006436079,0.8309191898292095,0.7655666408814097,0.5766056052737634,0.7553327798591016,0.7673987200229213,0.7340752626349709,0.6403188540055732,0.6660675765938051,0.6899436761408158,0.5212054539023887,0.35759408978336876,0.4700598477302008,0.6844658476463827,0.0769402800410683,0.13794174574438456,0.07946738342753416,0.13809580244545477,0,0.054870789609282926,0.26267759077828534,0.2400885011405857,0.33209822187150834,0.12351625251120896,0.036987967536370854,0.11251703826339432,0.03181429915648465,0.12396216624117891,0.16439942138264563,0.2199767334809469,0.07435260092014917,0.10252679671446004,0.3789541673649936,0.5823641678616709,0.011929042542562964,0.48081447869298566,0.5401890340496317,0.6470849379683922,0.30915783384647083,0.3757623130016487,0.46309281845073863,0.3207798735248666,0.36350605308615763,0.2656596023099213,0.39032316407577355,0.4007454222107038,0.46957819263292444,0.5406265747189456,0.4497053823534534,0.4828052406203943,0.6263704118721941,0.5041348773572157,0.43698446447161904,0.5690160849147526,0.5356548932921206,0.6367397411111849,0.7953141095394375,0.5724633296663554,0.7256045958034912,0.7154491637755724,0.6897282531338991,0.8042344026961196,0.6033640692614722,0.7988271995163105,0.7923761394389511,0.6835115100079584,0.7327290482681004,0.8002539699418606,0.7085192473272266,0.6964451748424276,0.84820137744317,0.7484396015931649,0.6502710249030251,0.5730499702366808,0.8052502978560373,0.8002821670774111,0.7940508491456624,0.5783085950487498,0.642728996260652,0.8771245216579309],[0.8941168741455794,0.6151142838054253,0.5353819435627855,0.8618552166131466,0.8434568093892288,0.7498287754619787,0.7841622638066903,0.6047957599817427,0.9130620347298001,0.7299469118253877,0.9083522071357627,0.8404360781588727,0.6622574994066323,0.8381557748932598,0.8470190293194949,0.8116140070858439,0.7173017039531621,0.7488926380815997,0.7697650503111477,0.5971223708564375,0.4388235175226698,0.555133798655088,0.7503301734096576,0.15271626823332674,0.07719323919038884,0.029792903398593824,0.22233649337666936,0.054870789609282926,0,0.3331939106699826,0.211383822635341,0.4076213428241326,0.20942597348286615,0.113889294841664,0.14492579261352148,0.07435260092014917,0.20833498708482356,0.21907762363619893,0.2824303706136559,0.03614043636860852,0.1776621067067978,0.38439394175740027,0.6505481197281963,0.09767096690131542,0.45621125854846334,0.5112512356955029,0.6979312055942445,0.3322165433758488,0.3993982039644044,0.4951931881409378,0.28991833780882204,0.35220121636220014,0.25791266748667435,0.35525740376096904,0.41438528913128214,0.4894078043930176,0.5437162855838693,0.44268160167271015,0.4922027272381295,0.6260494314550403,0.49185666931817235,0.4027493987953144,0.5549088176744769,0.580301402775307,0.6445144548297508,0.8228343593305842,0.5984244883249947,0.7369272319350334,0.7466013721856297,0.7085579849193907,0.8238174879110222,0.6253494675185816,0.8324041631234028,0.8301615668757606,0.7196069381874715,0.7717818151716737,0.8453768126662538,0.7063996733927305,0.7533691850586198,0.9019267057756837,0.8008850436456502,0.6939706692568162,0.6090268610092419,0.8554481919419821,0.8580606305632134,0.8580650246016173,0.6334750640742236,0.7020515534269762,0.9380467226485948],[0.817681102038247,0.5960268141508671,0.5873377988811617,0.7634484624342165,0.7708473523346392,0.6775200761365167,0.6767808621350488,0.5712153617087764,0.7850228386922984,0.637792462502161,0.7597469358456388,0.7189808347444197,0.4154897722442481,0.6350316911026203,0.6814879798245564,0.6693346568293885,0.5893393869384728,0.5532713540470623,0.608695652072968,0.4948942881988401,0.3215867897947223,0.2592133217121585,0.7010400950253876,0.25790816068750627,0.43109314696193946,0.3727194198323134,0.12764033071880365,0.26267759077828534,0.3331939106699826,0,0.5231844773802852,0.0514371678776293,0.1671387529331231,0.19464793536972436,0.18323463085142663,0.2285661320211556,0.20429696973013245,0.09840743257755961,0.034013337805963446,0.2996228898562845,0.12932198523259056,0.6128991066556136,0.5975715565477986,0.2277421653190316,0.7502635056176545,0.8127657135109746,0.7354284572148468,0.5202820767657156,0.5757128818584341,0.6316048396315879,0.6017773913782737,0.6227652351144684,0.5286906133479272,0.6723621261717875,0.6179492522707167,0.6670546226207327,0.7665072909742362,0.6977489678429524,0.7007162754350406,0.8541000944362275,0.7569932581489888,0.7171777058018467,0.821877580678584,0.6581217348093388,0.8480828808938439,0.9500845622980713,0.7460384977851865,0.9248914055273065,0.8643744314691194,0.873188078374123,0.9800011623636319,0.7845707110149076,0.9355113659715006,0.9161051577893328,0.8197786761336212,0.8561045916699908,0.8982568640830589,0.9362467212808848,0.7552197482813808,0.9095529888930978,0.8218836879313193,0.7643948917230807,0.7188987907963397,0.8837135779254847,0.8470809466210728,0.8111529608392335,0.6566311072302703,0.6958864583293365,0.9041841514876591],[0.8179925215953832,0.5361010983948958,0.4231380715955096,0.8031255584475027,0.7694836723829159,0.6860134833226632,0.7395143435444104,0.5375481309568005,0.8695388608976362,0.6818789889785427,0.8791555732349963,0.799153926803012,0.7269187939410303,0.8529580457671254,0.8349286008974114,0.7873095677055554,0.6947968903193728,0.7678634185814266,0.7628204369424546,0.5774044584970419,0.47056635344807896,0.6677039580237007,0.6712337437983802,0.24443877534149666,0.11489217463230977,0.15074264137276697,0.3736601116799424,0.2400885011405857,0.211383822635341,0.5231844773802852,0,0.5819415479926674,0.3405666359207464,0.3041485106606634,0.37711097330879906,0.29624629658661145,0.3139585993029441,0.43545999087518333,0.488295653791432,0.2782524066454065,0.3654026495898974,0.1733623467321273,0.5881979917965029,0.2666148865089879,0.21399121232000112,0.2706821046517416,0.5684515644188874,0.17392222302338456,0.22691556673058147,0.3304376542323884,0.04971398760965302,0.11758893031870772,0.04650576957886552,0.11935702067138153,0.2162553936115839,0.2963616646750288,0.31818297529455886,0.2086611745566972,0.27873622335816733,0.3944290497873845,0.25240703203221787,0.1658532360103737,0.3139585993029441,0.441076231617297,0.42224188561759374,0.6287372609070678,0.41040013406076964,0.5173999336856264,0.5626452481188854,0.5016568950428619,0.6151581169203867,0.4276140297655108,0.6507983637451764,0.6583937854688389,0.548248025825175,0.6053725477448116,0.6919129191712104,0.47193201841051263,0.6404424998671713,0.7716828615116021,0.6707941292463698,0.5437276141716613,0.4438375080931718,0.7161117794223568,0.7429606092914418,0.7659601089969862,0.5226578997883663,0.6007167051498314,0.8309886839651288],[0.7816087236941345,0.5806490508520133,0.5890160386977307,0.7236335372102621,0.7367631544339939,0.6462207018483077,0.6372275799114893,0.553576604722799,0.7380070641674881,0.6031449043922755,0.7086429363984795,0.6749737104321047,0.35050271153446566,0.5743102904133834,0.6282638795253214,0.6217989962283712,0.5478010603681851,0.4964247457933979,0.558467837008785,0.46431742977281026,0.3023848886097455,0.18725809223200376,0.6743772205230363,0.3087441690725759,0.5010184636014776,0.44257437968267577,0.1773373902661611,0.33209822187150834,0.4076213428241326,0.0514371678776293,0.5819415479926674,0,0.21266428799142018,0.2649081159039318,0.26494331570548557,0.3047346493955712,0.2453967295552626,0.1806728789691391,0.11620693262458978,0.3786491335373685,0.19947209546890146,0.6516458367280029,0.5739848291653566,0.293757975849927,0.7997525277943645,0.8630834877626812,0.7277237264586357,0.5551043616105255,0.6052067812137238,0.6500263233719196,0.6584183403148575,0.6699642324724552,0.5792567369036589,0.7287802185176675,0.6512928509024107,0.693016269501252,0.7993746792852331,0.7395088509694278,0.7322412536229461,0.8862426808704983,0.7996192813422893,0.7721807504825047,0.8636717021256441,0.6624241821707865,0.874750762988161,0.9572998052225775,0.7627904990442486,0.9464609659585599,0.8712648336254497,0.8904777569754387,0.9932734926301973,0.8027988256266093,0.9375302329232665,0.914635600801022,0.8238037776160687,0.8556288604608686,0.8896860480261455,0.9673469368906331,0.7387158192402081,0.8905031934805182,0.8078995279759963,0.7632677305348285,0.7281217986587071,0.8698912581537959,0.825198055107534,0.7819479772169128,0.6485006915299361,0.6794632687423422,0.8758933691719554],[0.7138167081121995,0.4568022216899433,0.41915518789374817,0.6705886031197205,0.6639028524415064,0.5679370622777347,0.5870471148162211,0.43776914837603936,0.7101800611135779,0.5380357597944193,0.6974455838531264,0.6387555580707053,0.4229918178086928,0.6090497493034436,0.6290613731594823,0.6011087484705995,0.5097633400704978,0.5201362011438684,0.5516510792802419,0.3955455165446592,0.220516986411985,0.3176577270325064,0.5801607967317473,0.06542415468949918,0.2793871310725416,0.22374594778287046,0.00888141665325305,0.12351625251120896,0.20942597348286615,0.1671387529331231,0.3405666359207464,0.21266428799142018,0,0.0792786782345912,0.1654560003994846,0.13630780729279382,0.007317749652351613,0.14475549898538342,0.15879535579237622,0.21367212950357378,0.06084725633662434,0.4147447471349291,0.4749959536354615,0.08082597685420427,0.5564735633765642,0.6196506088282463,0.5776029381788098,0.3224931749412672,0.37952232311741274,0.4424423808244003,0.4155736100273535,0.4273158085734915,0.3356241555262092,0.48571652820388916,0.420292722294162,0.47217274754911515,0.5687469183370308,0.5001120925322562,0.5033775813588384,0.6564038245212253,0.5596457371583525,0.5286906133479271,0.6243408419517777,0.4843084270575891,0.6522007048584572,0.7688567222663828,0.5571824291231968,0.7314953143932081,0.684269256270262,0.6830192732284851,0.7926101713584577,0.5942002653284916,0.7604740654948526,0.7458222858751118,0.6435769543991289,0.6852516735942383,0.7385889260146321,0.7387107439128151,0.6121625620508803,0.767549980550537,0.6726120151792278,0.5959141413957934,0.537897869613889,0.7329012369932214,0.7118187553930222,0.6919345343575936,0.50177178034312,0.5545442206452801,0.7805536093935929],[0.8153394950870142,0.5495195689221272,0.4953002062539666,0.7749504002472006,0.7650089970469415,0.6692565593044885,0.6926101334814759,0.5332928273674911,0.817403335988727,0.6420429922710776,0.8061953584118726,0.7455544516505654,0.5300807528964082,0.7193210694109722,0.7387737601896025,0.7096317053718636,0.6174800445211462,0.6304408928687033,0.6612988825494251,0.501346947807977,0.32917184073843486,0.4131358897403349,0.6779587345875061,0.08307337654159082,0.20568730618895065,0.1472270972732991,0.0808259768542043,0.036987967536370854,0.113889294841664,0.19464793536972436,0.3041485106606634,0.2649081159039318,0.0792786782345912,0,0.07404325004602418,0.026015180988987547,0.0955593370132533,0.10247803970926628,0.1533741577859727,0.10471233073576455,0.0346507698321372,0.427301602724419,0.5737200274120372,0.00888141665325296,0.5412640552431004,0.6017917962262649,0.6578439056106261,0.34868860065952484,0.4131879265961712,0.492700251113771,0.38442215277122077,0.4200040964465043,0.3224931749412672,0.4545326219811283,0.44405683979364013,0.5078594845785426,0.5881538275188299,0.5032679158782395,0.5273978785353963,0.6750433372600194,0.5595509301011384,0.5007075319889615,0.6247639387706821,0.5536183693328994,0.6807817011640445,0.8250353035861961,0.6051760789682818,0.7668745906099199,0.742940419121522,0.7263683721860751,0.8396134488855446,0.6385781218653013,0.8238174879110222,0.813939353178026,0.7072979728422458,0.753634766783096,0.8152867959535812,0.7576407846152023,0.7004172378050165,0.8545251797847695,0.7567304617593142,0.6677892171193666,0.5980374999938904,0.8154052682340664,0.8025614053562685,0.7891037953011835,0.5853481974466694,0.6445028886822752,0.8754021639630195],[0.9102882171144915,0.6499158921371817,0.5998137196771909,0.8668423436651486,0.8603283634984139,0.7643674689056776,0.7829200936305424,0.632298693666612,0.9047701884266114,0.7344155931560233,0.8898589389919714,0.8338075382644832,0.5880828426152949,0.7908378590708115,0.8188709375357612,0.7941348899490177,0.7041185670375631,0.7032944104975691,0.7419576146874911,0.5915060899913278,0.4147513198867248,0.45167673866871266,0.7757606775964041,0.18810799969645203,0.2528706773212625,0.1997431038235281,0.14771585921326583,0.11251703826339432,0.14492579261352148,0.18323463085142663,0.37711097330879906,0.26494331570548557,0.1654560003994846,0.07404325004602418,0,0.050771355014732275,0.19203045048090894,0.0545518861866036,0.12194106353591978,0.09317098662676883,0.07785296646694805,0.5221755480088517,0.6708182502624377,0.10909265714086402,0.6208503030958735,0.6787939613785848,0.7619747694649336,0.4489734470286016,0.5145837186379704,0.596709168064033,0.4576363640505801,0.5063082788930057,0.40857918143977723,0.5255853454879115,0.5425096453635598,0.6090533096312063,0.6838030459338262,0.5931246166189473,0.6251431034540357,0.7697727746111773,0.6471003007366263,0.57286670627445,0.7118082371700314,0.6586676169405233,0.7790145810266399,0.9292625202204703,0.7085245298456359,0.866828927754868,0.8475272152757324,0.8284784312492816,0.9422701285693574,0.7411531848290585,0.9287307880381167,0.9190223750002042,0.8122778878035822,0.8587209574270784,0.919990966490007,0.851992244865002,0.8026941816032505,0.9573195692461317,0.8601906576835403,0.772783642439217,0.7028753312515196,0.919252624777746,0.904050118776032,0.887377725164678,0.688750136522514,0.7461356897397385,0.9750691810074398],[0.8678468797233502,0.5986401258930042,0.5376717947318544,0.8288347830469612,0.8173772427930464,0.7218506321946327,0.7471257685709608,0.5836689475104004,0.8726482099478309,0.6958904890722043,0.8622212147015432,0.800623981276285,0.5863155870747622,0.7763758155210896,0.7953365657899998,0.7655666408814097,0.6730602047620251,0.6874848407680597,0.7178357488861796,0.5561659376604547,0.38539348064384094,0.4657926771031395,0.7289498748993894,0.12417205825446292,0.17836600456102608,0.12233213211464647,0.13593387332544069,0.03181429915648465,0.07435260092014917,0.2285661320211556,0.29624629658661145,0.3047346493955712,0.13630780729279382,0.026015180988987547,0.050771355014732275,0,0.150427165515357,0.1146063421841907,0.17706223445883348,0.04909887220322968,0.07837788440424615,0.4417074644814698,0.6253494675185816,0.0418844131545559,0.5393951361879392,0.5977248382757503,0.7010276430743598,0.37155987202279656,0.43794342141473924,0.5237316817680809,0.3769258766864602,0.424514421196468,0.3268133242921985,0.4454363078867383,0.4635564347426834,0.5319684480622991,0.6033825434010253,0.5115393248848339,0.5456615300948024,0.6889961466839191,0.5653218646444105,0.4925634791742925,0.6300051772670696,0.5925485080025349,0.6995960355965183,0.8562587090970082,0.6339589334350636,0.7883730672075869,0.775760677596404,0.7520000127073785,0.8663501748775124,0.6653662285344331,0.8584574711174082,0.8508751535309803,0.7426778989682644,0.7909515377595157,0.8562410970316439,0.7710661539827185,0.7470533869069407,0.9001705107995337,0.801309144251872,0.7071374533846897,0.6324925287605488,0.8590648360569954,0.8500729858626948,0.8396134488855446,0.6303537727116679,0.6920804199659019,0.9246969195667647],[0.6892226368633847,0.4269441807228195,0.38394308923276693,0.6483593447701269,0.6389888273067739,0.54314106624762,0.566049124187362,0.40925478767841494,0.6911997058794465,0.5154619193982654,0.6809980019833706,0.619224685687398,0.4240203306411653,0.6005399227514961,0.6151142838054253,0.5842787673020143,0.4916081879766945,0.5112974603083665,0.5375824847031476,0.37486900463870443,0.2047461384026803,0.3313308856505121,0.5530568033301727,0.04029570438294877,0.2661200996088894,0.21334730156420267,0.047041287614081766,0.12396216624117891,0.20833498708482356,0.20429696973013245,0.3139585993029441,0.2453967295552626,0.007317749652351613,0.0955593370132533,0.19203045048090894,0.150427165515357,0,0.18032198371229946,0.1970984562679836,0.22295248984800572,0.09360008796363861,0.378181609847555,0.44836808004877504,0.08445720602672363,0.5234663668211177,0.5869117315627053,0.5436347131593672,0.28495019721799386,0.3413787606945795,0.4042358557242463,0.38677884450669464,0.39352517436566337,0.3036625199203642,0.45639563579753595,0.38265998890373376,0.4338829046561486,0.5311930534274082,0.46440877576585465,0.4655849116397834,0.6188095050609871,0.524205645712993,0.49839063206572415,0.5886751857181974,0.4479550147596757,0.614046759996472,0.7312220190731511,0.5189577405711215,0.6931493497921319,0.6468064274472233,0.644705267681632,0.7544293152469679,0.5558881046289031,0.7235709823279066,0.709571484537689,0.6066317820191859,0.6489930194803969,0.7039391923028427,0.7010276430743598,0.5806974822961304,0.7357732819568931,0.6398371453200409,0.5601503837704501,0.5004527753576329,0.6997083150677169,0.6813961346477907,0.6645429610060014,0.4686173989692838,0.5236565612117091,0.7519987654041681],[0.8764632359219849,0.629169868337948,0.5948877312263813,0.8285075962979906,0.8274388273999749,0.7318201521859126,0.7429576649244645,0.6085002041606169,0.8601895617959692,0.6977905113398915,0.8411097490777396,0.790776061967516,0.521066308690905,0.7314837867258831,0.7668978472271683,0.7469483587625334,0.6601693959237969,0.6457090389019398,0.6911293826777826,0.5533515813474614,0.3744420868689556,0.376262189485445,0.7480736398400315,0.203632009650996,0.32398186329406564,0.2674318913628858,0.11267116511305386,0.16439942138264563,0.21907762363619893,0.09840743257755961,0.43545999087518333,0.1806728789691391,0.14475549898538342,0.10247803970926628,0.0545518861866036,0.1146063421841907,0.18032198371229946,0,0.03637263792813047,0.17578802544612077,0.05758656624113751,0.5586748984656529,0.6427077353124758,0.14221107458584786,0.6744879760231437,0.7346720173093798,0.7532612667946137,0.476078209707777,0.5385384041369402,0.6109872011619346,0.516090042740639,0.5534936235111392,0.4560134430625421,0.5857515928065926,0.5728602371185384,0.6329928032513249,0.7186608559991898,0.6362403241912374,0.6565174752671815,0.8059367303354115,0.6928633768146535,0.6323453174062127,0.7581029782206037,0.6593111649477896,0.809030361742074,0.9407570565070348,0.7251208161793342,0.8929545220566178,0.8568998438140754,0.8489593775177896,0.9606343334873487,0.7604428048491848,0.9345866642330711,0.9209325818135287,0.8176300827708832,0.8603542951043314,0.9143808105970264,0.8886246558965286,0.7860000629059272,0.9415527170527245,0.8475746457896038,0.771429744187918,0.7106959710445918,0.908130031153245,0.8843070300817234,0.8598969115864319,0.6770857434889415,0.7278524364323113,0.9502069985009696],[0.8571817524965496,0.6228473916900245,0.6017202832183969,0.8056632365863752,0.8092430953982673,0.7146030382183939,0.7192794163123191,0.5998900928354931,0.831763315369185,0.677363838974874,0.809125304182067,0.7640989209103446,0.4741234525784372,0.6904979702647353,0.732446387069363,0.7168978730595972,0.6336616991459535,0.60690792884337,0.6582053451385668,0.5331428141566258,0.3557501120638831,0.32171602044021214,0.7348284661493626,0.2373513623456949,0.38489518553379526,0.32728972199295675,0.1199101544918567,0.2199767334809469,0.2824303706136559,0.034013337805963446,0.488295653791432,0.11620693262458978,0.15879535579237622,0.1533741577859727,0.12194106353591978,0.17706223445883348,0.1970984562679836,0.03637263792813047,0,0.24250328212245567,0.0932653064893967,0.5962650737175804,0.6300859417213994,0.19076590458959441,0.7226523382866658,0.7840292646934689,0.7554582134693422,0.5083063508371999,0.5676690419190059,0.6322353782893851,0.5683103512149236,0.5982548222045027,0.5019403968775167,0.6385956245124522,0.6060678873971305,0.6610425567286886,0.7537625459545733,0.677628043455174,0.6896397168385163,0.8414288515561382,0.7356628869723536,0.6845113472109744,0.8009022622709975,0.6697264076422106,0.8401143697498983,0.9573986213885061,0.74698811211823,0.9207560998975569,0.8724028396008827,0.8728466913913215,0.9823568007964167,0.7840292646934689,0.9469511018141911,0.9303237476970344,0.8303188142557975,0.8698912581537959,0.9179238087879118,0.9240409614221884,0.7815233873557517,0.9368321814108788,0.84595314477656,0.7792733645788856,0.7261069859225732,0.9073296232770911,0.8766824029470407,0.8460392649779094,0.6776280434551739,0.7225573018178216,0.9380144711030398],[0.9312840090614084,0.6566183245718061,0.5850296242861664,0.8952858512318358,0.8806408973652775,0.7858171466034614,0.8151656139649831,0.643955679982537,0.942278490789978,0.7625448015808717,0.9340474079580351,0.8699060738902351,0.6658340280600288,0.8531392231077588,0.8690470814603447,0.8372263787148512,0.7438673620837694,0.7640448728516882,0.7915189039616176,0.6253717866658699,0.45867787500156165,0.5457253178205705,0.7897656540439723,0.18230275941050594,0.1399108047072697,0.09695061341975926,0.21589705103168402,0.07435260092014917,0.03614043636860852,0.2996228898562845,0.2782524066454065,0.3786491335373685,0.21367212950357378,0.10471233073576455,0.09317098662676883,0.04909887220322968,0.22295248984800572,0.17578802544612077,0.24250328212245567,0,0.15747367146659721,0.4499816014104495,0.6877580071327304,0.10778556701790577,0.5228272114682344,0.5772219712642247,0.7484396015931649,0.39356811363806116,0.46090585175253296,0.5542038734995341,0.35623378714214615,0.41932220607031007,0.32466713049096024,0.4206186475366779,0.47852724340280567,0.5522804186477743,0.6099376919793073,0.5096929018419187,0.5573838568687068,0.6927194483113289,0.5590391501569585,0.4680854346180934,0.622073714916827,0.6340450918466285,0.7101919200959895,0.8840039479315341,0.6597769382275425,0.8020941772463395,0.8064391345880422,0.7720786029986357,0.8872727924507399,0.6879228533430566,0.8914367926763896,0.8874769748068555,0.7775020173537891,0.8284784312492816,0.8992302780782013,0.7732646591664382,0.7999907505408739,0.9508156347172804,0.8505177398716838,0.7483777845014973,0.6667915468562796,0.906493807295437,0.9041392439657909,0.8991840814553634,0.6811840687127749,0.7468927006517398,0.981769690611225],[0.8039619109526768,0.5486912772465093,0.5085266283082586,0.759259339390688,0.7542589448639624,0.6583130316348234,0.6749331300408034,0.5295350999973648,0.7961414361539293,0.6271370594368427,0.7809674802182145,0.7253416543382544,0.4846904830301513,0.6833734444729306,0.710074639596459,0.6852793982246831,0.5954783174004714,0.5954554529480554,0.6331109503250383,0.48369971007068174,0.306271795767184,0.3576443489142385,0.6715173994844794,0.11648966409277602,0.2713718812145613,0.2129046279237051,0.03882008019631384,0.10252679671446004,0.1776621067067978,0.12932198523259056,0.3654026495898974,0.19947209546890146,0.06084725633662434,0.0346507698321372,0.07785296646694805,0.07837788440424615,0.09360008796363861,0.05758656624113751,0.0932653064893967,0.15747367146659721,0,0.47427745702433954,0.5662513772349781,0.06803472628612861,0.598366558694368,0.6598372583483983,0.6682065105068152,0.38923078240736975,0.45087416662049895,0.5223661860252369,0.44498787210149277,0.4740918726452581,0.3776466421691056,0.5154303453408494,0.4864820535490202,0.5451622744505509,0.6331830048191719,0.5542483745670265,0.5701846909143382,0.7206886968167978,0.6119276617594251,0.5610308307388868,0.677194236701481,0.571841558637936,0.7221009598345374,0.8522149038418046,0.63653689804736,0.8052004667701612,0.7684659013004883,0.7605596146334836,0.8720741334821068,0.6719899046329846,0.8465261305257706,0.8334517299002252,0.7295750487485869,0.7728840804750226,0.8285799364980264,0.8033842775090587,0.7039250176181517,0.8592550097266413,0.7639560131334194,0.6844676676845184,0.6223248991001528,0.824036822733402,0.8037057110091486,0.7833435555378683,0.5929013332997719,0.6463913304790241,0.8722576037302249],[0.6629558906551852,0.3966461284304735,0.2698100852110333,0.6607456645254646,0.6179015942396707,0.5461834789382172,0.6107746974598498,0.4075151995935999,0.7351773849798183,0.5542711800527889,0.7548474158284547,0.6696525354582696,0.6874413420121461,0.7638515800321494,0.7256773081632342,0.6712657303167348,0.5862544114983466,0.687330770819256,0.6618178281008882,0.482176979169609,0.43519821190338503,0.6745087407438538,0.5210751537098111,0.32787072397410866,0.30889743694100585,0.32623424772217136,0.4542536264209277,0.3789541673649936,0.38439394175740027,0.6128991066556136,0.1733623467321273,0.6516458367280029,0.4147447471349291,0.427301602724419,0.5221755480088517,0.4417074644814698,0.378181609847555,0.5586748984656529,0.5962650737175804,0.4499816014104495,0.47427745702433954,0,0.45698304016864094,0.38756353396758164,0.15100750474226432,0.2106683247342487,0.38937948829191676,0.06917171047416266,0.05847836675055175,0.1447110474240805,0.1457600700972325,0.05067579605327866,0.10102668079782265,0.16471233720324116,0.017399359857355204,0.09422539173360728,0.13063216535874844,0.060321393226287955,0.07737356294581269,0.21680244482779673,0.12043548016966424,0.17477816386199027,0.182143997256708,0.2637264935380323,0.2291673814772156,0.4243514520234385,0.20735374683913627,0.32168556319575115,0.3591516156847672,0.29889745048936306,0.4134253132229161,0.22320871457210276,0.4472803003395369,0.4569750348639646,0.3482390819966368,0.40623872668057415,0.4964389416674677,0.2993234449550582,0.46855745092712153,0.585500293707474,0.4873067471341656,0.3533920561549455,0.24934446498897989,0.5265787640863551,0.5658478934735679,0.602326601367592,0.3595785756910392,0.43891704777375434,0.6560878714408374],[0.2126495928658186,0.032314709978019045,0.16000738790233798,0.18505167184788113,0.1619739904491492,0.06901890686610783,0.12306271089290019,0.019741984893640183,0.25092494066608856,0.0662474833794792,0.2668696216014567,0.182469027658913,0.3368943162152659,0.30178287393131936,0.2434122440773168,0.18583968258882594,0.11418774757660119,0.24844314761530287,0.19220114040729536,0.08669336092292647,0.24494530091775454,0.4382550073748094,0.07434024432060103,0.47449388602619336,0.6503761431009301,0.6232112461174482,0.5001562220478606,0.5823641678616709,0.6505481197281963,0.5975715565477986,0.5881979917965029,0.5739848291653566,0.4749959536354615,0.5737200274120372,0.6708182502624377,0.6253494675185816,0.44836808004877504,0.6427077353124758,0.6300859417213994,0.6877580071327304,0.5662513772349781,0.45698304016864094,0,0.5534045030510849,0.6312136435009873,0.682236465020095,0.16751950595944365,0.3922565062975693,0.3677313217951127,0.3016018613300215,0.6089068112175706,0.5340924173289928,0.5192678262142267,0.6481748310256455,0.41481193069717803,0.3779014759626799,0.49340840714614537,0.5276986188357303,0.441751536589058,0.5483087190564793,0.5723489546307085,0.6627621200185301,0.6091590931923638,0.20351544782286327,0.49870292357229873,0.439387880379081,0.3492574564903155,0.5180572647972189,0.36429411335086154,0.44478265393104016,0.5046602150251936,0.3863953056338548,0.3954531617864969,0.35872418797691236,0.3090927533093007,0.31110829983165567,0.30794990064797606,0.6025445077725535,0.14166904256227927,0.28658617951224336,0.21413997552435413,0.23165777584176908,0.27435428118176775,0.2742647212302451,0.22017897851016532,0.18620414494681858,0.10987109167185961,0.08716526315564743,0.2769750727865244],[0.7962925573071271,0.5258899873853433,0.4653836174088783,0.7584168678764259,0.745753973868623,0.6504148416260906,0.677486993495278,0.5112350261319568,0.8040180538629067,0.6255185781478255,0.7952798330330375,0.7317484521932431,0.534491500530604,0.7158141110428629,0.7302822457908013,0.6984709516123009,0.6052441336146497,0.6266026286762902,0.652759407726164,0.4871566148950091,0.31994327636234554,0.42712896647154175,0.6566784483402162,0.0514371678776293,0.17709352048348848,0.11905366342645933,0.0956313198368444,0.011929042542562964,0.09767096690131542,0.2277421653190316,0.2666148865089879,0.293757975849927,0.08082597685420427,0.00888141665325296,0.10909265714086402,0.0418844131545559,0.08445720602672363,0.14221107458584786,0.19076590458959441,0.10778556701790577,0.06803472628612861,0.38756353396758164,0.5534045030510849,0,0.502077205874025,0.5628886766879335,0.6285951340980723,0.31005620434890224,0.375073477165753,0.45663869340684377,0.3465080947829491,0.3802448710079358,0.28282892777641,0.41683147426460687,0.40491445896071143,0.4696796322085554,0.5485514284257362,0.46334575396029837,0.4881276223845472,0.6353517648760241,0.5196794257297074,0.4627026223462319,0.5849022545984842,0.5214335526131813,0.6416612540201455,0.78923874988908,0.5683994280328009,0.7282590165454722,0.7077564076890308,0.6887067142359506,0.8023067281954083,0.6011988685998273,0.7894736766711858,0.7807377117151848,0.6732631606563739,0.7206176675124326,0.7844812933414443,0.7179239948806528,0.6741371905974598,0.8273383250426074,0.7286156670535244,0.6359123786042256,0.5635044782604028,0.7865561320119412,0.7771476042922867,0.7671454677698096,0.5575697289916934,0.6191600971927073,0.8519277222535089],[0.8220291039703791,0.5692054059897704,0.4407292456042046,0.8271551149987327,0.7799308013410371,0.7155525182033605,0.783596567884912,0.5830288332306521,0.9043957796191744,0.7281959851582126,0.9277509919697583,0.8415202687670503,0.8679642197637164,0.9445156473140112,0.9030792876946511,0.8473852789889645,0.7648012116521402,0.8689617159028078,0.8412336717402126,0.6633573351019516,0.6134555090168458,0.8461613778359456,0.6858005125373672,0.4617944865237634,0.35526414589038974,0.39571262020116077,0.5938023243905763,0.48081447869298566,0.45621125854846334,0.7502635056176545,0.21399121232000112,0.7997525277943645,0.5564735633765642,0.5412640552431004,0.6208503030958735,0.5393951361879392,0.5234663668211177,0.6744879760231437,0.7226523382866658,0.5228272114682344,0.598366558694368,0.15100750474226432,0.6312136435009873,0.502077205874025,0,0.0328010014050585,0.5354618308843218,0.24490637042130903,0.23828133915164318,0.3026806109979787,0.13593387332544066,0.10019579669580558,0.19053093744826735,0.08137176746080364,0.18654555451469607,0.23048028530761788,0.15788769104148273,0.07304714922771095,0.17209698326540793,0.19656126210905706,0.05005191815744036,0.04371846461210536,0.08489609381670726,0.41880721512516933,0.24808297211783625,0.4895078814671004,0.31599091612352836,0.33823240784849523,0.4483381991127956,0.3520754705850396,0.450244133256626,0.30986143997665183,0.5306554363837332,0.5531905584807476,0.4569750348639646,0.5143187290142371,0.6106767902208393,0.2575248254961935,0.6189297293811371,0.714803419743333,0.6238001518677696,0.4856333601687075,0.3817240330131071,0.652156865703061,0.707828673374648,0.75627904071533,0.5210963811770776,0.5984927556890104,0.7983347082861443],[0.8642802570137383,0.6195670477812022,0.491196906682462,0.8730458494639641,0.8238041584605643,0.763463214243617,0.8332276272620308,0.6350414666240801,0.9515703501770894,0.7786757067592059,0.9770592080249867,0.8904088629147608,0.9290309409366362,1,0.9555448312712571,0.8990024224859665,0.8184341426232071,0.925970067204849,0.895505133774244,0.7198363352867605,0.6755121021368898,0.9095851779649649,0.7314748206419223,0.5246557713686316,0.40766587079723815,0.45130633097698597,0.6567541873384695,0.5401890340496317,0.5112512356955029,0.8127657135109746,0.2706821046517416,0.8630834877626812,0.6196506088282463,0.6017917962262649,0.6787939613785848,0.5977248382757503,0.5869117315627053,0.7346720173093798,0.7840292646934689,0.5772219712642247,0.6598372583483983,0.2106683247342487,0.682236465020095,0.5628886766879335,0.0328010014050585,0,0.5744259080631395,0.3069265060523848,0.29543757847983587,0.35054963882241197,0.19053093744826735,0.16403928145743424,0.25321906030854946,0.12669374527214788,0.2419838793955557,0.2755756454358317,0.1826930561446731,0.12533392024425874,0.2133739430472953,0.19696713209634897,0.08088416619047617,0.08021900372368644,0.0776734378824252,0.46301902120189836,0.25644423801016597,0.500540974161767,0.34814293254823997,0.33864477977704777,0.4688675392614367,0.36436328207401625,0.4526651249750006,0.33551048671154576,0.5469877664456774,0.5735671215732484,0.48395706453450377,0.5397055265754809,0.6365622568007937,0.2421173982143312,0.6586770574660136,0.7451447674374083,0.6579214066535085,0.5202230224599806,0.4188506359841657,0.6817342127000442,0.7433104885928346,0.796520367496031,0.5665282056790524,0.6423636011991073,0.8332411880647841],[0.26126540287287925,0.1263073097266884,0.13253199524698928,0.28221947014322146,0.2259254597725778,0.19418730133068682,0.27079969359236983,0.15724038538035556,0.3644892368820615,0.2321047810191891,0.40186966432575877,0.3170709022755603,0.5342174130763749,0.48428884300725084,0.40851178590280474,0.34858999234350474,0.3028766387853598,0.44263830340606086,0.3760063294156431,0.27787007723619594,0.3960336723394739,0.6220821889734558,0.14845013427081855,0.5461400482337553,0.6676662170696355,0.6564739113684365,0.6106970831036851,0.6470849379683922,0.6979312055942445,0.7354284572148468,0.5684515644188874,0.7277237264586357,0.5776029381788098,0.6578439056106261,0.7619747694649336,0.7010276430743598,0.5436347131593672,0.7532612667946137,0.7554582134693422,0.7484396015931649,0.6682065105068152,0.38937948829191676,0.16751950595944365,0.6285951340980723,0.5354618308843218,0.5744259080631395,0,0.36450816779716694,0.31274101837601226,0.21369341463400168,0.5634869553640375,0.4710094510056128,0.49155025429467103,0.5834416985122807,0.3410884196696835,0.275843099164123,0.3647583000349339,0.43362233912543613,0.33241366028537206,0.3973116744838714,0.46292412282468076,0.584682334555794,0.4830054127824951,0.09654298936548138,0.3387574851778875,0.24102348151058633,0.19993487568801224,0.33679077597089,0.16913938494275108,0.26354530494446105,0.3087441690725758,0.22645070328225253,0.19779378525395303,0.1638856864722701,0.1149724641944411,0.11281607483444238,0.13178792003921852,0.4359817144179641,0.0534493655903844,0.17448057413546206,0.07270880674195598,0.03902482128862411,0.1248585205850512,0.12712246817823186,0.14546520150532552,0.19125266906035532,0.04818368198810512,0.059462147732096966,0.2356880301516589],[0.6153983904885748,0.33650123958100975,0.2189122623489105,0.6042958294718029,0.5676239070147912,0.4874932525675484,0.5458494860802588,0.3415369537257053,0.6741081044997039,0.4883213552941633,0.6883144379823255,0.605495821395758,0.5923422528590851,0.6821492811293791,0.6517493128340853,0.6001480419163278,0.511052485002376,0.6022798239469458,0.5839866374357435,0.40037807326358577,0.3375767757874135,0.5745253753486661,0.469346625309279,0.24171187127126248,0.27898834974655723,0.28006597913951947,0.3623690026573213,0.30915783384647083,0.3322165433758488,0.5202820767657156,0.17392222302338456,0.5551043616105255,0.3224931749412672,0.34868860065952484,0.4489734470286016,0.37155987202279656,0.28495019721799386,0.476078209707777,0.5083063508371999,0.39356811363806116,0.38923078240736975,0.06917171047416266,0.3922565062975693,0.31005620434890224,0.24490637042130903,0.3069265060523848,0.36450816779716694,0,0.03629532637461043,0.13495613399185907,0.1856339335681443,0.12188998086608914,0.09887938628322697,0.22994693503244676,0.0668180287511873,0.1293788191456511,0.21521582119190377,0.16048903334240702,0.1502907676314377,0.30286786388282916,0.22064507756015295,0.25321906030854946,0.28176914329096275,0.23773439865761326,0.30191490210123145,0.45963358178140235,0.2352617107133824,0.3871713732748301,0.3837665352884998,0.3495689383581567,0.46426419160521226,0.2638104212298633,0.47027225281142565,0.47088752466206635,0.3597385654270188,0.41428879981502215,0.4952525766019939,0.38522067032281104,0.43549627929629176,0.5688684923913798,0.4674928266553492,0.3446201026442364,0.2504569341475044,0.5150060036386727,0.5382433902629803,0.5616068145504749,0.3178509386508615,0.39623411217975785,0.626055872418205],[0.5778409214564028,0.3078394383563015,0.1821210891120259,0.5731518194007477,0.5318556771906492,0.45794072787234996,0.5216533106009044,0.3181093202661578,0.6467242930175033,0.4650004739034368,0.6656396560123965,0.5806703398711849,0.6067078491753315,0.6752761453331422,0.6361803104879766,0.5817529740468332,0.49686649049551823,0.5998033982709639,0.5726472553725339,0.39404092524401585,0.3597793856506478,0.6058067127868545,0.43439520445009366,0.30388033096825084,0.342841016168786,0.34662879802484564,0.4194147262747958,0.3757623130016487,0.3993982039644044,0.5757128818584341,0.22691556673058147,0.6052067812137238,0.37952232311741274,0.4131879265961712,0.5145837186379704,0.43794342141473924,0.3413787606945795,0.5385384041369402,0.5676690419190059,0.46090585175253296,0.45087416662049895,0.05847836675055175,0.3677313217951127,0.375073477165753,0.23828133915164318,0.29543757847983587,0.31274101837601226,0.03629532637461043,0,0.07270880674195598,0.2211774450777693,0.13618325554283411,0.14939084256190038,0.2509792022396175,0.02382786775300315,0.06363921140765387,0.16425944588066324,0.13970500606743178,0.09646130817661681,0.2502301624855268,0.1951551325872078,0.2640223427491676,0.24947448038791653,0.18521281574305867,0.24163546934095834,0.3923949234128706,0.16799115156577574,0.3233761154563912,0.31721957081604835,0.2830321630377755,0.3974302232524427,0.19669282032627902,0.40415806270451243,0.4063340144972981,0.29521013952965686,0.3508225559316714,0.4347140571755518,0.3310999182400786,0.38844921166254176,0.5143139532455323,0.41393775320114573,0.2858021266202419,0.18750104739312404,0.4581983233495794,0.48870672532316217,0.5195067806430823,0.2753334623102813,0.3547885371370771,0.5780333792131991],[0.4905706387249287,0.23852903266867873,0.11103303810464522,0.4934586871150358,0.4471312179600208,0.38218518531356066,0.45166324975243927,0.25598749948573757,0.5708000595368123,0.3974401008359807,0.5954679245709975,0.5088499413713065,0.5908991689554532,0.6264719239761414,0.57