"trial_id","rt","stimulus","response","trial_type","trial_index","plugin_version","time_elapsed","language","participant_number","success","raw_payload","placements","dissimilarity_vector","n_words","trial_category","distance_matrix","value"
"consent_form","27299","
    <div style=""max-width:800px; margin:0 auto; text-align:left; font-size: 16px; padding: 10px 0;"">
      <h1>Informed Consent Form</h1>
      <p>You are being invited to participate in a research study titled <strong>""Reproducibility of Psychological Science and Instruction.""</strong> This study is being done by Dr. Bria Long from UC San Diego and associated graduate students in the Experimental Methods course. You were selected to participate in this study because you are an adult in the U.S. and have been a represented population in previous psychology studies.</p>
      
      <p>The purpose of this study is to better understand how well previously published studies in the psychological field replicate online and with different populations. Your participation in this research should last approximately <strong>5-30 minutes</strong>. If you agree to take part in this study, you may be asked to view a set of stimuli, including pictures, sounds, written text, or videos and then giving some responses via key-presses, verbally, or with paper-and-pencil. We may also observe your choices or preferences among an array of stimuli. These stimuli will be taken directly from or closely adapted from studies that already exist in the published psychological literature. Stimuli will include, e.g., pictures of objects and human faces, audio and video clips, short text passages, etc. None of the stimuli will be disturbing, threatening, or offensive. The online and in-person experiments described in this protocol will take no more than 30 minutes. An example game you might play would be to click on an image on the screen that matches a word you hear being said out loud. Your total expected time commitment for this study is between 5-30 minutes, and is specified in the study description.</p>
      
      <p>Your participation in this study is completely voluntary and you can withdraw at any time. Choosing not to participate or withdrawing will result in no penalty or loss of benefits to which you are entitled. You are free to skip any question that you choose.</p>
      
      <p>We will not be asking for any personally identifying information, and we will handle responses as confidentially as possible. Your SONA or Prolific IDs will never be tied to your responses on this survey. However, we cannot guarantee the confidentiality of information transmitted over the Internet. To minimize this risk, data containing anything that might be personally identifying (e.g. Prolific IDs or IP addresses) will be encrypted on transfer and storage and will only be accessible to qualified lab personnel. We will be keeping data collected as part of this experiment indefinitely. This anonymized data (containing neither Prolific IDs nor IP addresses) may be shared with the scientific community or with other participants to be used as stimuli in future studies.</p>
      
      <p>If you have questions about this project or if you have a research-related problem, you may contact the researcher(s), <strong>Dr. Bria Long, <a href=""mailto:brlong@ucsd.edu"">brlong@ucsd.edu</a></strong>. If you have any questions concerning your rights as a research subject, you may contact the UC San Diego Office of IRB Administration at <a href=""mailto:irb@ucsd.edu"">irb@ucsd.edu</a> or 858-246-4777.</p>
      
      <h3 style=""margin-top: 25px;"">Consent Statement</h3>
      <p style=""font-weight: bold;"">By participating in this research you are indicating that you are at least 18 years old, have read this consent form, and agree to participate in this research study. Please keep this consent form for your records.</p>
    </div>
  ","0","html-button-response","0","2.1.0","27302","en","kouccg15nn_4wwb9n","","","","","","","",""
"","4034","
    <div style=""display:flex; align-items:center; justify-content:center; height:100vh; font-family:sans-serif;"">
      <div style=""max-width:900px; margin:0 auto; text-align:center;"">
        <h1 style= ""font-size: 24px;"">Welcome! Thank you for participating in the study.</h1>
        <p style=""font-size:18px; line-height:1.6;"">
          In this task, you will be presented with <strong>90 words</strong> arranged <strong>outside a circle</strong>.<br>
          Your job is to <strong>drag these words into the circle</strong> and <strong>rearrange them</strong> based on their <strong>meaning similarity</strong>.<br><br>
          Words that are <strong>similar in meaning</strong> should be placed <strong>closer together</strong>.<br>
          Words that are <strong>different in meaning</strong> should be placed <strong>farther apart</strong>.<br><br>
          You can place the words <strong>anywhere inside the circle</strong>. There is no single correct answer — 
          we are interested in <strong>your personal judgment</strong> of how these words relate to each other.<br><br>
          <strong>You must move all words into the circle before you can finish.</strong><br>
          After the initial arrangement, you will arrange words from specific categories.
        </p>
        <p style=""font-size:16px; margin-top:30px;""><em>Press any key to continue.</em></p>
      </div>
    </div>
  "," ","html-keyboard-response","1","2.1.0","31340","en","kouccg15nn_4wwb9n","","","","","","","",""
"","3941","<p style='font-size:20px;'>Which is your first language or primary language of use?</p>","1","html-button-response","2","2.1.0","35282","en","kouccg15nn_4wwb9n","","","","","","","",""
"","2148","","","fullscreen","3","2.1.0","38435","en","kouccg15nn_4wwb9n","true","{""placements"":[{""word"":""proud"",""x"":174.1,""y"":466.3,""cx"":197,""cy"":483.7,""angle_rad"":2.423,""angle_deg"":138.8},{""word"":""refrigerator"",""x"":566.8,""y"":151.8,""cx"":606,""cy"":169.2,""angle_rad"":-0.615,""angle_deg"":324.8},{""word"":""rabbit"",""x"":247.5,""y"":630.8,""cx"":270,""cy"":648.2,""angle_rad"":1.833,""angle_deg"":105},{""word"":""agreement"",""x"":220.5,""y"":398.3,""cx"":259,""cy"":415.7,""angle_rad"":2.516,""angle_deg"":144.2},{""word"":""lips"",""x"":575.5,""y"":524.3,""cx"":591,""cy"":541.7,""angle_rad"":0.672,""angle_deg"":38.5},{""word"":""scissors"",""x"":626.7,""y"":237.8,""cx"":657,""cy"":255.2,""angle_rad"":-0.299,""angle_deg"":342.8},{""word"":""giraffe"",""x"":167.7,""y"":616.8,""cx"":192,""cy"":634.2,""angle_rad"":2.078,""angle_deg"":119.1},{""word"":""system"",""x"":339.8,""y"":146.3,""cx"":367,""cy"":163.7,""angle_rad"":-1.48,""angle_deg"":275.2},{""word"":""fault"",""x"":176.8,""y"":225.3,""cx"":195,""cy"":242.7,""angle_rad"":-2.536,""angle_deg"":214.7},{""word"":""friendship"",""x"":58.7,""y"":485.8,""cx"":94,""cy"":503.2,""angle_rad"":2.602,""angle_deg"":149.1},{""word"":""method"",""x"":311.7,""y"":166.3,""cx"":340,""cy"":183.7,""angle_rad"":-1.631,""angle_deg"":266.6},{""word"":""ant"",""x"":148.3,""y"":603.8,""cx"":163,""cy"":621.2,""angle_rad"":2.174,""angle_deg"":124.6},{""word"":""depressed"",""x"":32.3,""y"":261.8,""cx"":70,""cy"":279.2,""angle_rad"":-2.894,""angle_deg"":194.2},{""word"":""sofa"",""x"":531.8,""y"":85.8,""cx"":550,""cy"":103.2,""angle_rad"":-0.89,""angle_deg"":309},{""word"":""violence"",""x"":88.3,""y"":192.8,""cx"":119,""cy"":210.2,""angle_rad"":-2.597,""angle_deg"":211.2},{""word"":""chopsticks"",""x"":523.3,""y"":112.8,""cx"":561,""cy"":130.2,""angle_rad"":-0.806,""angle_deg"":313.8},{""word"":""concept"",""x"":347.5,""y"":85.3,""cx"":377,""cy"":102.7,""angle_rad"":-1.462,""angle_deg"":276.2},{""word"":""sparrow"",""x"":259.1,""y"":655.8,""cx"":289,""cy"":673.2,""angle_rad"":1.757,""angle_deg"":100.7},{""word"":""chair"",""x"":514.8,""y"":135.8,""cx"":535,""cy"":153.2,""angle_rad"":-0.816,""angle_deg"":313.2},{""word"":""business"",""x"":358.4,""y"":192.8,""cx"":391,""cy"":210.2,""angle_rad"":-1.285,""angle_deg"":286.3},{""word"":""magic power"",""x"":204.3,""y"":439.8,""cx"":249,""cy"":457.2,""angle_rad"":2.326,""angle_deg"":133.3},{""word"":""result"",""x"":318.9,""y"":187.3,""cx"":341,""cy"":204.7,""angle_rad"":-1.633,""angle_deg"":266.5},{""word"":""hostility"",""x"":97.7,""y"":237.8,""cx"":126,""cy"":255.2,""angle_rad"":-2.741,""angle_deg"":202.9},{""word"":""dispute"",""x"":104.4,""y"":298.3,""cx"":132,""cy"":315.7,""angle_rad"":-2.986,""angle_deg"":188.9},{""word"":""relationship"",""x"":104.2,""y"":446.3,""cx"":145,""cy"":463.7,""angle_rad"":2.635,""angle_deg"":151},{""word"":""pencil"",""x"":623.7,""y"":290.3,""cx"":647,""cy"":307.7,""angle_rad"":-0.141,""angle_deg"":351.9},{""word"":""anger"",""x"":136.1,""y"":146.3,""cx"":159,""cy"":163.7,""angle_rad"":-2.369,""angle_deg"":224.3},{""word"":""team"",""x"":79.4,""y"":523.8,""cx"":100,""cy"":541.2,""angle_rad"":2.489,""angle_deg"":142.6},{""word"":""washing machine"",""x"":398.9,""y"":32.8,""cx"":458,""cy"":50.2,""angle_rad"":-1.225,""angle_deg"":289.8},{""word"":""thigh"",""x"":477.8,""y"":588.3,""cx"":498,""cy"":605.7,""angle_rad"":1.046,""angle_deg"":59.9},{""word"":""charity"",""x"":630.4,""y"":381.8,""cx"":656,""cy"":399.2,""angle_rad"":0.159,""angle_deg"":9.1},{""word"":""finger"",""x"":387.5,""y"":662.8,""cx"":410,""cy"":680.2,""angle_rad"":1.391,""angle_deg"":79.7},{""word"":""characteristic"",""x"":224.8,""y"":154.3,""cx"":271,""cy"":171.7,""angle_rad"":-1.988,""angle_deg"":246.1},{""word"":""cat"",""x"":130.7,""y"":603.3,""cx"":145,""cy"":620.7,""angle_rad"":2.219,""angle_deg"":127.1},{""word"":""eye"",""x"":531.7,""y"":554.3,""cx"":548,""cy"":571.7,""angle_rad"":0.842,""angle_deg"":48.2},{""word"":""bed"",""x"":375.3,""y"":37.3,""cx"":392,""cy"":54.7,""angle_rad"":-1.429,""angle_deg"":278.1},{""word"":""computer mouse"",""x"":515.9,""y"":257.3,""cx"":573,""cy"":274.7,""angle_rad"":-0.326,""angle_deg"":341.3},{""word"":""microwave"",""x"":554.6,""y"":133.8,""cx"":593,""cy"":151.2,""angle_rad"":-0.686,""angle_deg"":320.7},{""word"":""reason"",""x"":283.6,""y"":109.3,""cx"":310,""cy"":126.7,""angle_rad"":-1.748,""angle_deg"":259.8},{""word"":""hammer"",""x"":637.3,""y"":266.8,""cx"":668,""cy"":284.2,""angle_rad"":-0.204,""angle_deg"":348.3},{""word"":""spoon"",""x"":583.9,""y"":97.8,""cx"":608,""cy"":115.2,""angle_rad"":-0.738,""angle_deg"":317.7},{""word"":""fate"",""x"":77.3,""y"":107.8,""cx"":94,""cy"":125.2,""angle_rad"":-2.421,""angle_deg"":221.3},{""word"":""arm"",""x"":424.9,""y"":645.8,""cx"":442,""cy"":663.2,""angle_rad"":1.285,""angle_deg"":73.6},{""word"":""rat"",""x"":122.8,""y"":587.3,""cx"":136,""cy"":604.7,""angle_rad"":2.27,""angle_deg"":130},{""word"":""excited"",""x"":126.8,""y"":391.3,""cx"":154,""cy"":408.7,""angle_rad"":2.851,""angle_deg"":163.3},{""word"":""ear"",""x"":563.9,""y"":545.8,""cx"":579,""cy"":563.2,""angle_rad"":0.75,""angle_deg"":43},{""word"":""society"",""x"":290.2,""y"":83.3,""cx"":317,""cy"":100.7,""angle_rad"":-1.702,""angle_deg"":262.5},{""word"":""toothbrush"",""x"":600.9,""y"":295.3,""cx"":639,""cy"":312.7,""angle_rad"":-0.128,""angle_deg"":352.6},{""word"":""process"",""x"":24.5,""y"":216.8,""cx"":54,""cy"":234.2,""angle_rad"":-2.769,""angle_deg"":201.4},{""word"":""splendor"",""x"":161.2,""y"":430.3,""cx"":193,""cy"":447.7,""angle_rad"":2.585,""angle_deg"":148.1},{""word"":""air conditioner"",""x"":471,""y"":189.3,""cx"":520,""cy"":206.7,""angle_rad"":-0.7,""angle_deg"":319.9},{""word"":""tortoise"",""x"":296.1,""y"":674.3,""cx"":324,""cy"":691.7,""angle_rad"":1.647,""angle_deg"":94.3},{""word"":""status"",""x"":283.3,""y"":59.3,""cx"":307,""cy"":76.7,""angle_rad"":-1.727,""angle_deg"":261.1},{""word"":""trauma"",""x"":47.2,""y"":175.8,""cx"":74,""cy"":193.2,""angle_rad"":-2.625,""angle_deg"":209.6},{""word"":""death"",""x"":75.5,""y"":149.8,""cx"":98,""cy"":167.2,""angle_rad"":-2.514,""angle_deg"":216},{""word"":""happy"",""x"":-18.1,""y"":368.3,""cx"":6,""cy"":385.7,""angle_rad"":3.038,""angle_deg"":174.1},{""word"":""identity"",""x"":296.8,""y"":17.3,""cx"":324,""cy"":34.7,""angle_rad"":-1.653,""angle_deg"":265.3},{""word"":""marriage"",""x"":36.4,""y"":398.3,""cx"":69,""cy"":415.7,""angle_rad"":2.912,""angle_deg"":166.8},{""word"":""error"",""x"":255.2,""y"":14.3,""cx"":275,""cy"":31.7,""angle_rad"":-1.802,""angle_deg"":256.7},{""word"":""ankle"",""x"":391.3,""y"":646.3,""cx"":413,""cy"":663.7,""angle_rad"":1.373,""angle_deg"":78.6},{""word"":""tiger"",""x"":164.4,""y"":591.3,""cx"":183,""cy"":608.7,""angle_rad"":2.144,""angle_deg"":122.8},{""word"":""apathy"",""x"":129,""y"":334.3,""cx"":155,""cy"":351.7,""angle_rad"":3.133,""angle_deg"":179.5},{""word"":""disease"",""x"":-3.1,""y"":296.3,""cx"":26,""cy"":313.7,""angle_rad"":-3.03,""angle_deg"":186.4},{""word"":""broom"",""x"":500.2,""y"":162.3,""cx"":525,""cy"":179.7,""angle_rad"":-0.772,""angle_deg"":315.8},{""word"":""sad"",""x"":58.7,""y"":310.3,""cx"":75,""cy"":327.7,""angle_rad"":-3.061,""angle_deg"":184.6},{""word"":""key"",""x"":510.1,""y"":281.3,""cx"":526,""cy"":298.7,""angle_rad"":-0.284,""angle_deg"":343.8},{""word"":""heaven"",""x"":115,""y"":485.3,""cx"":143,""cy"":502.7,""angle_rad"":2.506,""angle_deg"":143.6},{""word"":""obligation"",""x"":156,""y"":59.3,""cx"":191,""cy"":76.7,""angle_rad"":-2.098,""angle_deg"":239.8},{""word"":""data"",""x"":207.4,""y"":36.3,""cx"":226,""cy"":53.7,""angle_rad"":-1.967,""angle_deg"":247.3},{""word"":""loving heart"",""x"":18.8,""y"":441.8,""cx"":60,""cy"":459.2,""angle_rad"":2.781,""angle_deg"":159.4},{""word"":""content"",""x"":2,""y"":401.8,""cx"":30,""cy"":419.2,""angle_rad"":2.929,""angle_deg"":167.8},{""word"":""phenomenon"",""x"":102.1,""y"":89.8,""cx"":148,""cy"":107.2,""angle_rad"":-2.265,""angle_deg"":230.2},{""word"":""cabinet"",""x"":463.4,""y"":72.8,""cx"":491,""cy"":90.2,""angle_rad"":-1.074,""angle_deg"":298.5},{""word"":""miracle"",""x"":54.4,""y"":361.3,""cx"":82,""cy"":378.7,""angle_rad"":3.035,""angle_deg"":173.9},{""word"":""fear"",""x"":143.9,""y"":211.3,""cx"":161,""cy"":228.7,""angle_rad"":-2.571,""angle_deg"":212.7},{""word"":""knee"",""x"":444.8,""y"":618.8,""cx"":465,""cy"":636.2,""angle_rad"":1.189,""angle_deg"":68.1},{""word"":""comfortable"",""x"":183.4,""y"":363.3,""cx"":225,""cy"":380.7,""angle_rad"":2.901,""angle_deg"":166.2},{""word"":""debt"",""x"":201.4,""y"":103.3,""cx"":220,""cy"":120.7,""angle_rad"":-2.087,""angle_deg"":240.5},{""word"":""elephant"",""x"":306.1,""y"":646.3,""cx"":338,""cy"":663.7,""angle_rad"":1.609,""angle_deg"":92.2},{""word"":""effect"",""x"":329,""y"":115.3,""cx"":351,""cy"":132.7,""angle_rad"":-1.566,""angle_deg"":270.3},{""word"":""discipline"",""x"":146.2,""y"":313.3,""cx"":180,""cy"":330.7,""angle_rad"":-3.029,""angle_deg"":186.5},{""word"":""television"",""x"":436.8,""y"":50.8,""cx"":471,""cy"":68.2,""angle_rad"":-1.165,""angle_deg"":293.2},{""word"":""shoulder"",""x"":465.2,""y"":615.8,""cx"":497,""cy"":633.2,""angle_rad"":1.092,""angle_deg"":62.6},{""word"":""nose"",""x"":524.8,""y"":582.8,""cx"":545,""cy"":600.2,""angle_rad"":0.909,""angle_deg"":52.1},{""word"":""ax"",""x"":672.6,""y"":295.8,""cx"":685,""cy"":313.2,""angle_rad"":-0.109,""angle_deg"":353.7},{""word"":""scenery"",""x"":209.5,""y"":334.3,""cx"":239,""cy"":351.7,""angle_rad"":3.126,""angle_deg"":179.1},{""word"":""panda"",""x"":210.5,""y"":627.8,""cx"":235,""cy"":645.2,""angle_rad"":1.942,""angle_deg"":111.3},{""word"":""fraud"",""x"":168.1,""y"":172.3,""cx"":189,""cy"":189.7,""angle_rad"":-2.358,""angle_deg"":224.9},{""word"":""table"",""x"":507.8,""y"":80.8,""cx"":528,""cy"":98.2,""angle_rad"":-0.955,""angle_deg"":305.3}],""n_words"":89,""words"":[""proud"",""refrigerator"",""rabbit"",""agreement"",""lips"",""scissors"",""giraffe"",""system"",""fault"",""friendship"",""method"",""ant"",""depressed"",""sofa"",""violence"",""chopsticks"",""concept"",""sparrow"",""chair"",""business"",""magic power"",""result"",""hostility"",""dispute"",""relationship"",""pencil"",""anger"",""team"",""washing machine"",""thigh"",""charity"",""finger"",""characteristic"",""cat"",""eye"",""bed"",""computer mouse"",""microwave"",""reason"",""hammer"",""spoon"",""fate"",""arm"",""rat"",""excited"",""ear"",""society"",""toothbrush"",""process"",""splendor"",""air conditioner"",""tortoise"",""status"",""trauma"",""death"",""happy"",""identity"",""marriage"",""error"",""ankle"",""tiger"",""apathy"",""disease"",""broom"",""sad"",""key"",""heaven"",""obligation"",""data"",""loving heart"",""content"",""phenomenon"",""cabinet"",""miracle"",""fear"",""knee"",""comfortable"",""debt"",""elephant"",""effect"",""discipline"",""television"",""shoulder"",""nose"",""ax"",""scenery"",""panda"",""fraud"",""table""],""distance_matrix"":[[0,0.7492009209136049,0.2522507779208267,0.12216075541253053,0.5751165972476622,0.745783037726223,0.20878246154088528,0.5220253881577885,0.3425361714947419,0.14110570865435096,0.47762870005001234,0.1955561386531232,0.3421193521547365,0.7537714772412817,0.40672708781321926,0.7365780173988854,0.6093351424629475,0.29763420351884334,0.6852912819746586,0.48203579215317494,0.072374125954714,0.4504580445303128,0.33997457923269564,0.25249620549917406,0.06845503238786002,0.7007676338988296,0.4627034550145105,0.15283886425276505,0.7345126988639757,0.4664548972771249,0.6763905813531117,0.4146999326058741,0.4603474841099713,0.202797252027511,0.5213003249084055,0.6830846094941959,0.622355687062157,0.7508919775612292,0.5399284697804617,0.7426505119424026,0.8025559952767477,0.5377778790756147,0.43529556957899607,0.18648174730789585,0.11392264919435392,0.5631926750127708,0.5797209160830012,0.6870580949276973,0.4114155791553944,0.03962316783408444,0.6154429479202785,0.3465276817612479,0.6096650218644236,0.4526723131021972,0.4765688305782341,0.30358370428497067,0.6762459660367275,0.200437517535176,0.6645091674240245,0.40194037940118776,0.1720970335716826,0.19094038721279424,0.3427079771450161,0.6475474253608146,0.2789796438288356,0.5443507898805197,0.0707204209003088,0.5881303751567007,0.6235305538953546,0.1919058315464644,0.2508498726606602,0.5476471123376676,0.7126117087578274,0.21638695921046508,0.36697244868132367,0.4421467924708686,0.14392850391788217,0.524058500200539,0.3242568070801051,0.5530051503386115,0.21375025098786396,0.7222413352987561,0.48184166035173076,0.5288727450528578,0.7506659563765912,0.19094038721279424,0.2314540871958849,0.42108050517578355,0.737616553993824],[0.7492009209136049,0,0.8514975658616689,0.6156397580766653,0.5374803824328455,0.13393971870480598,0.9069609187665004,0.33965916614493274,0.6036262870658579,0.8902728634448107,0.38008711412468477,0.9221968957670301,0.7954005841542433,0.11407654286623,0.7089463439580932,0.07412724784975458,0.3387670655286214,0.866744047847161,0.0936998174463548,0.3097965166763118,0.6645172294277113,0.3815253682020233,0.7073495681335166,0.7198927350951211,0.7952049097012466,0.19969763579926503,0.6472815308773566,0.9150023885077131,0.26695030970093203,0.651169567039342,0.334199234824822,0.7955911438466824,0.4815790202509858,0.9405049979250677,0.5875582163369909,0.34504749357936493,0.1495533460505898,0.018888353165684664,0.42836791193907375,0.17929586330295247,0.06597517300372527,0.7461684787171375,0.7559666617155356,0.9338189611446999,0.7426837665046487,0.5702026523980291,0.4253676098595472,0.20384576917294786,0.8081848602767815,0.7228577530255403,0.12482113428490269,0.8642876819373524,0.44899587071872427,0.7737606841318879,0.7374662517027273,0.929552506669903,0.44818464342804576,0.860043542307494,0.5162120771959213,0.7712279943528945,0.8883220246543728,0.7056964270960697,0.8701846106787666,0.10686026892853139,0.8057251738819836,0.2112005056555562,0.8300649649763441,0.6149617420986393,0.5735177888985935,0.9005177421973293,0.9148327951949589,0.6696814134167878,0.1924193301971879,0.8207789315940933,0.6501309197595596,0.7076134160099079,0.6306166752259433,0.5614918328544332,0.8180064409319213,0.3670765387263553,0.6599310029652616,0.23543266784201095,0.6910603919029568,0.6299183262088576,0.2289933489024341,0.5923134667968264,0.8787263196406303,0.6036014874388236,0.14206049637553345],[0.2522507779208267,0.8514975658616689,0,0.33033569599134766,0.4863073130687363,0.8018921888730387,0.10326402521572892,0.7169216758306806,0.5960192456076459,0.3233499166990148,0.6808748650438095,0.14927712630646567,0.6068730809521592,0.8923574181204033,0.6713388232704512,0.8648788441804183,0.8083049406992489,0.03249226538405263,0.816553171626784,0.6581864688920849,0.27026823496273666,0.6504076120360635,0.6051508801840936,0.51854481188542,0.31568746651336577,0.7374680715228378,0.7212673834799086,0.28316597875415667,0.9132673058526092,0.32910382227634566,0.6654904157272968,0.1984690726728798,0.6908683445905626,0.17536258282901898,0.41253796998701714,0.8822844538245804,0.6974465268705229,0.8628013259124668,0.7596948917081522,0.7838343526991224,0.9195990579343682,0.8022769339768995,0.24142728997749494,0.19443573943105472,0.3796704548498421,0.4600844739461223,0.7988658829281444,0.7237332192533007,0.6767561447172566,0.30373611493562136,0.7365255426549834,0.08861305576799577,0.8331570597057707,0.718852592433003,0.7416431457677887,0.5367279915293316,0.8970206192078282,0.44065006714290184,0.8979796087662314,0.19880483890692965,0.12737535572899022,0.45645026548295864,0.5984731395492882,0.7750335127244113,0.5409688523546851,0.6268600226427617,0.27171656509962777,0.8394255783968426,0.8678132025974117,0.4039477761999551,0.4767199029154964,0.8063678756294396,0.8737960823441449,0.47209022863694994,0.6271587030065527,0.2750280330577405,0.3872813590456653,0.7698013954205616,0.08920861028961419,0.7579097430109625,0.4741834141037946,0.8940167967555498,0.32254788082835034,0.39896529915691387,0.7749402625390557,0.42700802213739364,0.03800614027231096,0.6747437406115725,0.8846465856976214],[0.12216075541253053,0.6156397580766653,0.33033569599134766,0,0.5113047094630193,0.6208189913449577,0.32409584982863304,0.3915845274353156,0.25889004714832153,0.2623018247097888,0.34952565613370223,0.32154590044636605,0.3308944722653962,0.6176625111629837,0.3538496883250766,0.6007695514008199,0.48083172098951116,0.36950631919632065,0.549453835136022,0.34731963205734984,0.04918784981057496,0.3208890440608875,0.29436950235894516,0.22514442833138293,0.16900796736423224,0.5817793216527511,0.38707068308140963,0.28566741189158823,0.6016178344666243,0.4376653530493844,0.5737802934770437,0.43655032095072643,0.3473975963477903,0.3330063045503908,0.4718262573114435,0.5551102113603508,0.49518074182183025,0.6162389333725528,0.42012892576453414,0.6215234666440738,0.6672660283019364,0.4802172400429042,0.4413425838049099,0.3195960494336221,0.14170247842196634,0.5072407228947343,0.4598143906394784,0.5684095816972139,0.3910426321605598,0.09453996932038208,0.4806304809881351,0.4054633206532637,0.49248346652090563,0.4140614361930309,0.42402088441109437,0.3628955917953967,0.5577492945683675,0.26708658143987374,0.5545370517871372,0.41784975337648367,0.2928605316681151,0.16667315496752613,0.36226804068994123,0.512037311988827,0.2877368520335849,0.41723621843922437,0.200524244627296,0.4974703693839107,0.5237228948853226,0.2873495175623385,0.3248135004675268,0.4710064127585698,0.5772932712423882,0.25351656679871015,0.2983312186312826,0.43239086360358336,0.05822209148639556,0.42619541521214604,0.3710402322429776,0.42621281287996476,0.1576922616457237,0.5881580831009781,0.46294724352775796,0.4894746755816165,0.6341524143584363,0.08522676709705146,0.32736467884438963,0.3360044508325675,0.6015751814879381],[0.5751165972476622,0.5374803824328455,0.4863073130687363,0.5113047094630193,0,0.420925197654763,0.5918838627086088,0.6359690394664357,0.7200101200199118,0.7233920594327968,0.6327714789399714,0.6299561286057462,0.8489787867584625,0.6374876303448826,0.8391986490497148,0.596336604982326,0.7084422411553539,0.47326370003136825,0.5666397080657026,0.5587171904957565,0.5071315661484318,0.6067109463506728,0.7939276389583991,0.7428178543133978,0.6557651543782274,0.3419434201159862,0.8351264189316359,0.7123150331329094,0.7392014506019153,0.15303387419832973,0.21771885093989685,0.32316256707791347,0.7096270059974162,0.6560215588795487,0.06359946346476678,0.7642175203103407,0.3818785878387369,0.5636663467052381,0.7273793356280392,0.383594577545653,0.6174095882535213,0.945201860073582,0.27042696025850377,0.6654855854650626,0.6617139394921159,0.0224657699102308,0.7540104733641632,0.3321349868132617,0.9013658081576305,0.5909491437389348,0.4925720233011011,0.43903913393733707,0.7919940246840474,0.9082907113589043,0.9018126919940349,0.8815942360072235,0.8336176422509864,0.780343761099139,0.873489190319016,0.30524336728422063,0.597627202478681,0.689536540974647,0.8872541369071932,0.5303293668950333,0.8123299625440941,0.35811906275293365,0.6512168518783242,0.8933225424557221,0.887448337251131,0.7809044557055491,0.8354088551878036,0.9038889163326211,0.67007215332593,0.7766025533910093,0.7727448321269367,0.21901378263078983,0.5774833548567845,0.8160682929135403,0.40151140609246044,0.687488673156148,0.6694157267367971,0.7085713279950775,0.18008253615419104,0.09612405860297428,0.35151638043337663,0.5777182156675482,0.5344307136155853,0.7764060313506747,0.6486400681673027],[0.745783037726223,0.13393971870480598,0.8018921888730387,0.6208189913449577,0.420925197654763,0,0.8733782393751609,0.4358479941242989,0.6696690116678321,0.8960290624376929,0.46671954249730113,0.8954506312146627,0.8550397276362532,0.2609988975941579,0.7846142083841973,0.2191769030337068,0.4576556947921098,0.8098052990646577,0.22126508513035176,0.3850935278229289,0.6594596565716883,0.459392221407369,0.7714811781751852,0.767745485931836,0.8037649408155405,0.06509783920646153,0.7349992544702557,0.912201308861363,0.4086463932603228,0.5553432529062493,0.19905021750787563,0.7131471500694694,0.5702087387011028,0.9165487935049684,0.4811859035860757,0.47757584431464195,0.1135992969422742,0.16667315496752613,0.5333784030076869,0.03192350930063362,0.20544592401747236,0.8407266929406063,0.6682092342274725,0.9140259195502147,0.7639380654484998,0.45600994420105284,0.538449631282962,0.07516747853612916,0.8785216411492898,0.7290983391387176,0.2010146131681184,0.7981333920882623,0.5671934020047245,0.853260363569901,0.8230806918539827,0.9681377395477769,0.5768027489803605,0.887612464603709,0.6406922346026034,0.6898665223632535,0.8606779114746567,0.7421804541757608,0.9234000455300498,0.21097689410395823,0.8535722048899129,0.1902196707261316,0.8298847832067555,0.724173527139298,0.6897965745693027,0.9192380659158826,0.9446813448107688,0.7701206182938798,0.33224876131490094,0.8559610560700119,0.7207568447810391,0.6171214618523057,0.6514622678703804,0.6623632836524144,0.7526934673831529,0.47359140687605,0.7003898557082758,0.3761774844958962,0.5931947363987857,0.5225741497393882,0.08131105317570153,0.6205983591741624,0.835996935803896,0.6850409190332197,0.2866106600488134],[0.20878246154088528,0.9069609187665004,0.10326402521572892,0.32409584982863304,0.5918838627086088,0.8733782393751609,0,0.7285725587830236,0.5651549356806443,0.22803685800320483,0.6874469529571764,0.03305414059367328,0.5412915711215167,0.9333164432520811,0.6224382046208127,0.909992219841141,0.8184836199183391,0.14068713011794753,0.8598917634958937,0.678851528793641,0.2610983475615323,0.6584895369582245,0.5550852197977969,0.46544563114487,0.2476495025976332,0.8144128941265687,0.6837015192029697,0.17954478060222817,0.9352626863911434,0.44062840899789874,0.755382460414581,0.3156036602784018,0.6800667112800812,0.058377281428564125,0.5206812018383838,0.8928343782458168,0.7608803528460351,0.9146136913227149,0.7567452627922909,0.8599743845098706,0.9699025357114075,0.7527673080495743,0.35831600245973355,0.07966914633637934,0.32429966217609235,0.5680356432470944,0.7965503563666223,0.8004874013898491,0.6119326057900553,0.26191347635495144,0.783066430255008,0.1990155476384888,0.8280405691608389,0.6613041877973701,0.6906692585067772,0.44517802592999434,0.8940448088953801,0.3569330162963881,0.8856579847231633,0.3158400884793544,0.026044590185509895,0.40747794810352667,0.519931774029366,0.8194581605613014,0.4713176096287979,0.6862949631030542,0.19362045901346991,0.8106803253451487,0.8461712805677599,0.31027935685494296,0.38423728326796236,0.7682767522452562,0.9042437308528379,0.39750890945793943,0.5875964074985484,0.3898679499969482,0.36417722444471934,0.7467241629475548,0.20636767101701708,0.764236147066299,0.4353223547105334,0.9194396760746482,0.4371927559229433,0.510606538083639,0.8562285585745405,0.40965282328153924,0.05169778501836084,0.643548549674435,0.9217749456186418],[0.5220253881577885,0.33965916614493274,0.7169216758306806,0.3915845274353156,0.6359690394664357,0.4358479941242989,0.7285725587830236,0,0.266014088107393,0.6304401429575114,0.03574636238655103,0.7269900262608172,0.45740742886915176,0.27114156945877477,0.35927056514568556,0.27725013368236884,0.07747893976585225,0.7484594557812102,0.23502987187482158,0.06344767724402518,0.4539529449254787,0.057857407951967706,0.36735206061343906,0.4000236758442932,0.538080665064076,0.45177295346888086,0.2937115161649049,0.6699809873182585,0.20122824196417238,0.6679461825186579,0.5374803824328453,0.7526763438939621,0.12853745696260468,0.737560876505109,0.6462645215621465,0.15146074452790342,0.33217291580252867,0.32084738614841596,0.08656341215000303,0.4656258704488018,0.3496708445956837,0.39385289273158186,0.7331697426179016,0.7224281717848245,0.46624763236601974,0.6550202897058803,0.10501482596606208,0.44478888993319754,0.4606224506004521,0.4787023884609742,0.2211255193570963,0.7696293449228528,0.14236871575256815,0.42163149383603954,0.3839741400242501,0.6129123872805264,0.18717914602174038,0.56331349821284,0.22403921375010688,0.7287504379129864,0.6983221249949567,0.40516848062437816,0.5370829740799974,0.22094861700533652,0.48142170060371603,0.29457079089149335,0.5870610553479934,0.2764479171178616,0.25056776741134995,0.6163309301186628,0.6115921178159331,0.32058915481093236,0.19926196643886865,0.5141088808194068,0.30556193997108655,0.6998245377402006,0.369639667448692,0.21259428457092228,0.7268700556154717,0.03764698609160602,0.356893932317934,0.19489719196416339,0.7066428447650325,0.6833203781428925,0.5058072688714028,0.32246334477017224,0.7245409905096989,0.2521305488310665,0.24314460765285628],[0.3425361714947419,0.6036262870658579,0.5960192456076459,0.25889004714832153,0.7200101200199118,0.6696690116678321,0.5651549356806443,0.266014088107393,0,0.39931552488067384,0.21759958968024498,0.5479061275873909,0.1786622239791282,0.5502357917924485,0.10830941267792259,0.5524168228654563,0.32568669089918856,0.637828437555799,0.5060934343373004,0.2799201611538941,0.3132258023675522,0.2091983189883309,0.08976911050338415,0.1286755825460713,0.3212025373736801,0.6615050457736052,0.11446047017713853,0.4493974103153749,0.4681376069298695,0.685453578796197,0.7061614361495017,0.7070996576681018,0.13988567117224313,0.5500394344336889,0.6998088280718782,0.38883720802498656,0.5471691786055308,0.590109874553061,0.22765682364227657,0.6883774646816068,0.6253884831970874,0.21523116536824444,0.7073999947986005,0.5285678447096923,0.23896518293036453,0.7258877804797467,0.2629613595842644,0.6509059438462649,0.1949862187478515,0.28928845755962473,0.4697138238822323,0.6770570051250069,0.2822477717719621,0.17942177630161435,0.1678638650160211,0.33661036491625274,0.34807812341761574,0.3026175967742756,0.31982883036577936,0.6873077377021594,0.5277101812640539,0.15778783506272798,0.25718873705311257,0.48298495110905654,0.2035630544812756,0.4826061661651638,0.37824422650763,0.2316579430943145,0.2693429784316025,0.36344166897992497,0.34343187303769956,0.19818692775017865,0.47856969362234997,0.2475899058964187,0.040433767032399405,0.6919369375681697,0.19493778240960025,0.17025337358895506,0.6437161574254482,0.26839144375775537,0.1180893873418434,0.4690466977169158,0.7162403227384746,0.7260799789631981,0.7182989138136935,0.15991491169461655,0.5843414556496009,0.06494200286637554,0.5229822967616506],[0.14110570865435096,0.8902728634448107,0.3233499166990148,0.2623018247097888,0.7233920594327968,0.8960290624376929,0.22803685800320483,0.6304401429575114,0.39931552488067384,0,0.5824918493307789,0.18823696575714147,0.3192744790479636,0.8832723015666858,0.4210151192941855,0.8701075842398137,0.7114227701004937,0.36870310970342596,0.8188301590418288,0.603156253268864,0.22519932627130992,0.5591353885730885,0.35591918771166675,0.2690271221778157,0.08146308557599184,0.8536339922886322,0.4973425453470843,0.04295014212597922,0.8456226148421774,0.6025607767195438,0.8314490726047316,0.5217906159660106,0.5419064346534888,0.17551276336720048,0.6651864448131907,0.7825391915054768,0.7710524242153368,0.8893105361767113,0.6280913965742834,0.8947827530657992,0.9386311953897314,0.5451692330124208,0.5525940128070651,0.14852646270668474,0.15162104256446857,0.7089085106078032,0.6666780206234372,0.8400176183340635,0.3883154077383568,0.15392409259528964,0.7537700523021168,0.42591260666656094,0.6912066231529223,0.4455394540435909,0.48307960224058655,0.20318678848000582,0.7580387063729127,0.12065147225423101,0.7330935987727507,0.5142564651722142,0.1902089544743003,0.22762173082438322,0.2838472659917268,0.7831666210890322,0.24715559004481472,0.693024031508644,0.05852836603734726,0.6330188191328612,0.6790050724900446,0.06829558155431355,0.14224970308821624,0.5772150926072737,0.8334111050071292,0.1710548443175693,0.40399554733010806,0.5690122633367729,0.25133690738190023,0.5817320343670346,0.418042887058899,0.653014062080267,0.27115308073599365,0.8375014963956411,0.6123956169192742,0.6684032500510338,0.9042961519340733,0.29623723799536983,0.2820445709093647,0.47058665726400933,0.8641017524935422],[0.47762870005001234,0.38008711412468477,0.6808748650438095,0.34952565613370223,0.6327714789399714,0.46671954249730113,0.6874469529571764,0.03574636238655103,0.21759958968024498,0.5824918493307789,0,0.6841341677569447,0.4096657355375972,0.3187101607824194,0.3152823438679657,0.32238285320572335,0.11776588228195707,0.7140151342833841,0.277989261230742,0.07105888298378209,0.41240200222849627,0.017143225857919317,0.31978704011648734,0.3504364505625177,0.4907524198403439,0.47579154989840405,0.2554035896388868,0.6229558441584887,0.2495951438243457,0.6525690093498101,0.5518061308986948,0.7277131301166387,0.08963983038830328,0.6938741904503202,0.6372268680088434,0.19177692428332155,0.35604338873153996,0.3633488988660533,0.08132253578279305,0.49347452746585996,0.39520533565548693,0.3600669760623263,0.7111738862753738,0.678029945812489,0.41785228683625164,0.6494320879810102,0.11344268003810498,0.46772159711615624,0.4156304331508406,0.4330001170000791,0.2544596986789199,0.7378330383625075,0.15167223912058428,0.3797538219806724,0.3448341240095796,0.5634120333154482,0.20770794506740142,0.5137254866134676,0.2305732215690775,0.7042078218975484,0.6562125735999275,0.35568545843554705,0.4887347616422861,0.259754722571688,0.43215735129700916,0.30950917223974855,0.5406232613270737,0.2573823300806438,0.24179969460194017,0.5670766805193258,0.5618947179544798,0.29175768835662086,0.24875116448957038,0.46441022412918703,0.2590543859322603,0.6804354594862747,0.3234569269193711,0.18651994901009133,0.6960500262735153,0.06321766623077713,0.3074327084703597,0.24437561664988125,0.6903186837110747,0.6726979570941063,0.5311232051129572,0.2759955180686715,0.6861246575965494,0.20957547739633497,0.29153574668414806],[0.1955561386531232,0.9221968957670301,0.14927712630646567,0.32154590044636605,0.6299561286057462,0.8954506312146627,0.03305414059367328,0.7269900262608172,0.5479061275873909,0.18823696575714147,0.6841341677569447,0,0.510289449195417,0.9424740727030582,0.597455459138955,0.9209480261775775,0.8157469706416922,0.18766806014756882,0.8703426640043795,0.6812601005621264,0.25995848372180075,0.6560203342505438,0.530178602727114,0.44025042854709945,0.22053027173546852,0.8390216791992481,0.6627885593664177,0.13666624212988807,0.9367068082785794,0.4820953400883173,0.7857969288745426,0.36167730319393626,0.6698514147149065,0.012680808496645515,0.5602109895141542,0.8898653612259987,0.7800713595890008,0.9283084519506928,0.7491263767376903,0.884074222896581,0.9827655450933561,0.726775541980248,0.40338196006898747,0.0328500715633974,0.3006495346119589,0.607329297873595,0.7889413107872176,0.8250691391074417,0.58075376868883,0.2464885824193671,0.7952157254141045,0.2460219212327049,0.8191391306057144,0.6326699786712083,0.6644333799062073,0.4047016614269364,0.8856677129639755,0.32030454264223274,0.8736102959311872,0.3611417817107666,0.020931594319848514,0.3848556379274829,0.4839883263187913,0.83055087511446,0.4392739280331386,0.7042782701104382,0.16380537222583233,0.792514064888279,0.830627299524334,0.2700025325011584,0.3437860090683674,0.7466590843651876,0.9092436225199637,0.3642235107488279,0.5666246341840608,0.4333035152549882,0.3534151830952661,0.7311522380101763,0.2524233196609249,0.7602800779270976,0.4164776008299353,0.922337114093404,0.4804048179010788,0.5519390511466237,0.8825550841096563,0.4002277632521048,0.09830618549931058,0.625462055056648,0.9294153901685096],[0.3421193521547365,0.7954005841542433,0.6068730809521592,0.3308944722653962,0.8489787867584625,0.8550397276362532,0.5412915711215167,0.45740742886915176,0.1786622239791282,0.3192744790479636,0.4096657355375972,0.510289449195417,0,0.7422668944087283,0.11122510159954234,0.7450191357358252,0.5098473952023088,0.652813517483142,0.6986599355191431,0.47170238337228526,0.35944272787213716,0.4017700273532829,0.07616536459755609,0.09246570517847738,0.2806377365136485,0.8405631618016111,0.20172588628000185,0.3761185943364178,0.6524655997318721,0.7823056670299691,0.8708225276211347,0.7636986035034606,0.3232079947274536,0.5032183085989853,0.81495813236122,0.5666698546549642,0.7300943868567566,0.7824797866256936,0.40664906704367637,0.8706160202934191,0.8179877031159479,0.21658634378084052,0.7768654290279612,0.47731092363004973,0.21436557120128436,0.8482048107085525,0.4368173550644499,0.8291468031493665,0.05669015804738739,0.29462485925985815,0.6602523525213858,0.7025962883686806,0.4471442847998257,0.11339114747633179,0.15681047645906793,0.1698327276067999,0.5075344928763912,0.18795677689185794,0.4614101515815381,0.748193959359719,0.5012940605982669,0.15129698104197079,0.06874986737563898,0.6749692633997315,0.05816523124199343,0.661160391868878,0.33382590068861756,0.3349752741228393,0.391633754740716,0.25270551311171585,0.20141499333470902,0.26539994553704505,0.6686468942608396,0.1342888113994678,0.13998697002790758,0.773585678619378,0.2600992300912179,0.30883629504120136,0.679304956909736,0.45478686344874936,0.16570303196168568,0.6562909228654908,0.8064745547295661,0.8340408863377394,0.8971199856977364,0.25805580434505093,0.5798904196887048,0.20629317916301243,0.7144864718513994],[0.7537714772412817,0.11407654286623,0.8923574181204033,0.6176625111629837,0.6374876303448826,0.2609988975941579,0.9333164432520811,0.27114156945877477,0.5502357917924485,0.8832723015666858,0.3187101607824194,0.9424740727030582,0.7422668944087283,0,0.6429172456922,0.02917024644928224,0.2419418785123125,0.9133534292593861,0.06326018137261787,0.26952827133285046,0.6733663695923464,0.3297187195088019,0.6522932147010594,0.6796457206590314,0.7880538196122844,0.32083758353335196,0.5712808114116067,0.9149128847845955,0.1430948296933095,0.7332941918112887,0.45110537846611176,0.8642861249027848,0.4109884477991726,0.9580608574870686,0.6790398025923003,0.2305161742778185,0.24199317360919878,0.08136845237919153,0.34274248169104726,0.30564410072917225,0.07365402196361309,0.6613284883096169,0.8296406987008055,0.9479546091451653,0.7258434198925015,0.6678114094104508,0.33071043016103835,0.3227339479020333,0.744867776797517,0.719879318479546,0.14544043537574058,0.9185147827302285,0.3476132351684043,0.7026020134902758,0.661296087432285,0.8927402731587484,0.3353544264066764,0.8344938976077477,0.40633944198932564,0.8395229984705821,0.9100422428919871,0.6763208528185491,0.8213291821828586,0.10509066329437212,0.7631698382489915,0.2773928524731209,0.8296215709019726,0.5185098860908451,0.47085525238867304,0.8819301005715678,0.8860965630465351,0.5806985813309709,0.0754095788774636,0.7893336207707596,0.5906438841265598,0.7844018451585176,0.6181715146096161,0.4748552792751119,0.8724386066961294,0.2836157481967096,0.6285138170195177,0.11385419252702428,0.773912046429675,0.7212268361541561,0.3553182938893589,0.5748811632248544,0.9133156775178058,0.5351384387913487,0.019417043065917964],[0.40672708781321926,0.7089463439580932,0.6713388232704512,0.3538496883250766,0.8391986490497148,0.7846142083841973,0.6224382046208127,0.35927056514568556,0.10830941267792259,0.4210151192941855,0.3152823438679657,0.597455459138955,0.11122510159954234,0.6429172456922,0,0.6504582441289755,0.39947167354488955,0.7156029443719698,0.6071267718789146,0.38837795074279324,0.3989123091028778,0.3145205595804422,0.053408449062466654,0.14327757364169855,0.3629804923532427,0.7802476908273852,0.07677329765366309,0.4764545198484574,0.5405265953466283,0.7962992679073206,0.828116896617216,0.803717781284853,0.21797841566977816,0.5944587351118243,0.8158590356143123,0.45076946585301236,0.6643289566376402,0.6925794078586246,0.29438369440151035,0.8054498620445028,0.722879652358446,0.11709978305195533,0.8089948138547328,0.5701169692475794,0.2841887017764937,0.8437165807228871,0.320723198476264,0.7700107365665835,0.08853569970826877,0.35400431969746515,0.5792125757096237,0.7601260500633046,0.3271081744892888,0.05719934237844463,0.056829389757703165,0.2947949798617872,0.3852148176342071,0.2988815930490313,0.3366985099190144,0.7854757551977839,0.5830455004869808,0.20201480502723587,0.19186331436308413,0.5882779847525271,0.17163341471506502,0.6021329912092794,0.42015475668851826,0.21040226273494386,0.2664679607706246,0.3645553044720322,0.3220533687455722,0.14432296092257538,0.5642148466783122,0.24122266448003812,0.05393016351911047,0.7978245111820942,0.28300853665836095,0.18565727226380865,0.7309672225010929,0.3478521791880526,0.18582161809073758,0.5474810265607005,0.8251535592106573,0.8403515809579281,0.8370015573441648,0.26047818713665616,0.6519663815917222,0.09393582083809598,0.6132961975479465],[0.7365780173988854,0.07412724784975458,0.8648788441804183,0.6007695514008199,0.596336604982326,0.2191769030337068,0.909992219841141,0.27725013368236884,0.5524168228654563,0.8701075842398137,0.32238285320572335,0.9209480261775775,0.7450191357358252,0.02917024644928224,0.6504582441289755,0,0.261234535670014,0.8843653210416621,0.03739195298681633,0.2639551079071387,0.6545765725574925,0.329613659637715,0.6555200901934323,0.6773881959434387,0.7747020605416466,0.2777905937812473,0.5827302389605852,0.8995913548552051,0.17895591301125943,0.6955340622032213,0.4080246621199238,0.8296886783894781,0.41937284780698797,0.9373742894787792,0.6393791261535892,0.2598356458862515,0.20052041917152458,0.04266104014561643,0.35735162025652917,0.2634231854961898,0.05902097847946909,0.6768543346211946,0.7938501124051263,0.9282797169074527,0.7155163438656231,0.627076366458877,0.34958960638377035,0.27961475365975197,0.7515964346803699,0.7049709601874065,0.11442852008672877,0.887548152085123,0.36999669841987254,0.7124005092221409,0.6730814084119092,0.8897951566973769,0.36399781147555177,0.827446602578252,0.4334728638631077,0.8049814525280039,0.8880273521009016,0.6701457170349965,0.8226522298627297,0.07658016990164686,0.76201043218611,0.24060457799293483,0.8142187396586358,0.5390275955347241,0.494321086613665,0.8726085976237614,0.8802752070942861,0.5978865150839914,0.1052995406116705,0.7842363682026344,0.5953858263155456,0.7478533427207412,0.605965375116098,0.49063590224045184,0.8413437331945701,0.29669185282040444,0.6228785471415187,0.1477012745563454,0.7360629502373692,0.681654951966367,0.31302094236944006,0.5641434149928101,0.8876085210435668,0.543288255933524,0.05403885295407241],[0.6093351424629475,0.3387670655286214,0.8083049406992489,0.48083172098951116,0.7084422411553539,0.4576556947921098,0.8184836199183391,0.07747893976585225,0.32568669089918856,0.7114227701004937,0.11776588228195707,0.8157469706416922,0.5098473952023088,0.2419418785123125,0.39947167354488955,0.261234535670014,0,0.8398882247519512,0.23140058875663982,0.14639840731461087,0.5435434095228222,0.14604154938173658,0.4204696443802201,0.46624763236601974,0.6207858152343964,0.4874906009911919,0.3208890440608875,0.7532326616574013,0.1288231523173374,0.7512891409515339,0.5882543696485667,0.8416557623599463,0.1731290317694818,0.8255901917397062,0.7244458083770996,0.06043147626948051,0.3717641337818483,0.3134998632703472,0.09131588218065685,0.49334300104486384,0.3282321584794046,0.405969674688254,0.8206727701101592,0.8097216301444852,0.546109550015799,0.7298517507386978,0.0748446779498635,0.4827097000375802,0.5018924479344805,0.5643983525360544,0.2475899058964187,0.8607926618636679,0.09649858165195882,0.4537962735141517,0.40961666687051435,0.6762459660367275,0.11357142033731947,0.6355868370095901,0.1698729014449583,0.817562866031173,0.7876264239652377,0.4794856147408165,0.5918202084683541,0.23281770350907172,0.543101232676066,0.3502232344282822,0.671515994217005,0.26384486697520404,0.22086477463908116,0.6916873822100907,0.6807504737555392,0.32483933337440823,0.15568084251640063,0.5836000117188471,0.3559310181770194,0.7858424095001736,0.4547045887781854,0.21979548841589447,0.8178588281063083,0.044766699828758916,0.43174518888000846,0.13415592072622665,0.7905665150995991,0.7627544542674853,0.5378631318676509,0.40713970707786057,0.8155254329849078,0.2924609306900849,0.20949838314728136],[0.29763420351884334,0.866744047847161,0.03249226538405263,0.36950631919632065,0.47326370003136825,0.8098052990646577,0.14068713011794753,0.7484594557812102,0.637828437555799,0.36870310970342596,0.7140151342833841,0.18766806014756882,0.652813517483142,0.9133534292593861,0.7156029443719698,0.8843653210416621,0.8398882247519512,0,0.8369385621858205,0.6873202175080734,0.3109770223226156,0.6832889992286967,0.6496822850908768,0.5635924794955677,0.3620738981332245,0.742813879005851,0.7638241456114131,0.3270400080870332,0.9408679745783406,0.3109138896963781,0.6635038910396693,0.16532358144442003,0.7283235300774246,0.21275961115741185,0.3975168855109571,0.9135070747884185,0.7098662200221099,0.8795629299036593,0.7950047929302259,0.7893850291448409,0.9367746993763085,0.8464163971508746,0.2128404204235836,0.23400402696796765,0.42529788114844397,0.4448246589254272,0.8338786462389719,0.7292573254585843,0.7225826568089389,0.34856504864778715,0.7560394781203655,0.044603462281594265,0.8687679832771034,0.764013651194571,0.7860485786979875,0.5827650725450834,0.9319090715785388,0.48701314465097323,0.9351546344563808,0.16999931735198023,0.16958255947540068,0.501249472034413,0.6449114633945777,0.7951873338595065,0.5871870902139235,0.641598998706112,0.3180715822296688,0.8801947677826664,0.9071132552257976,0.4496564548196884,0.5226312376556084,0.8488390087974141,0.8986939943204377,0.5185016679238921,0.670251251150206,0.25206887180994575,0.4289363878951315,0.8096316433678686,0.05987421558767889,0.790775892099434,0.5176956713151221,0.9205547782540359,0.2993489566558965,0.37980591747428144,0.777661823817128,0.4673131835557845,0.07601957896290941,0.7163571712717289,0.9071093951588344],[0.6852912819746586,0.0936998174463548,0.816553171626784,0.549453835136022,0.5666397080657026,0.22126508513035176,0.8598917634958937,0.23502987187482158,0.5060934343373004,0.8188301590418288,0.277989261230742,0.8703426640043795,0.6986599355191431,0.06326018137261787,0.6071267718789146,0.03739195298681633,0.23140058875663982,0.8369385621858205,0,0.21512493577461403,0.603429191106979,0.28294222027187227,0.6095527420877911,0.6287844969767934,0.7234202481816346,0.26830715982505193,0.5424277233469398,0.8482454133585353,0.17626620080748126,0.657600692470821,0.391554853296228,0.787192314239151,0.37750226683804133,0.8865829131555379,0.605373924291813,0.24288917951127612,0.17434863609435336,0.07188805059187085,0.3211576539819386,0.26217804844974557,0.10777811591505618,0.6396699937245712,0.7528586180730702,0.8772990271840108,0.6645950228411772,0.5959847205785219,0.3177221487687645,0.2676941332269128,0.7075406400261738,0.6536288537232873,0.06823238013849033,0.8415381253847328,0.3417720140291704,0.6705018294588365,0.6327714789399713,0.840762851179383,0.34400076743558156,0.7771728134995146,0.4105480016517238,0.7624219870676745,0.8375403611036818,0.6201948175508456,0.7754826231866103,0.02794144447778995,0.7137731501117696,0.20167515886529586,0.762872755714566,0.5073078849155281,0.4662185853564904,0.8218198439944638,0.8303108704589104,0.562511327294528,0.0997104052201895,0.734536084144474,0.5504122127052621,0.7079453633373092,0.5548145677655899,0.4544553425849056,0.7954320093202161,0.2598955736650444,0.5731284704337343,0.14342882931042694,0.6982652956672645,0.6473969165740842,0.31045138474167083,0.5132136876706384,0.8384132255329138,0.5006758463555563,0.06805582402404461],[0.48203579215317494,0.3097965166763118,0.6581864688920849,0.34731963205734984,0.5587171904957565,0.3850935278229289,0.678851528793641,0.06344767724402518,0.2799201611538941,0.603156253268864,0.07105888298378209,0.6812601005621264,0.47170238337228526,0.26952827133285046,0.38837795074279324,0.2639551079071387,0.14639840731461087,0.6873202175080734,0.21512493577461403,0,0.4074721074726356,0.06044985722122581,0.3836351640186905,0.3997123974455321,0.5085446377326679,0.39124516849418667,0.33603649058162083,0.6379555650436449,0.24262390404916945,0.5920860672733385,0.4675035167065567,0.6818200623732543,0.17245682884341357,0.6939240316432314,0.5690146090100441,0.2160602126523128,0.2716591176265677,0.29732069647568615,0.15812033463373507,0.41014256776342134,0.3364355694550044,0.44299447640418516,0.6603395611352412,0.6808669928375854,0.44332294267337446,0.5776239126872366,0.1815317038908162,0.38297494736608,0.4857860414617236,0.4434162343129375,0.1769278546410849,0.7051246316613528,0.2193516320661089,0.45561405917967435,0.4240826998638305,0.6118998325931194,0.2639127884361222,0.5510670081047538,0.30093106721424906,0.6576349005498572,0.6509557153536224,0.3930661479730515,0.5472262012542007,0.1893229178665861,0.4847281531852927,0.22481592104136522,0.5532814872064951,0.3417289573721583,0.32242838615367925,0.5987155778740338,0.6030569732115376,0.37643817699035265,0.21709825690588988,0.5066463816272779,0.3273518582049831,0.625605324790928,0.33803124518606426,0.2715326924948677,0.661411508462604,0.11504905954886353,0.3454586343242254,0.22712649173518798,0.6310777225940007,0.6062648576519942,0.4468351616352417,0.2932213307004252,0.6696061993548608,0.2863712555197649,0.2477905985515413],[0.072374125954714,0.6645172294277113,0.27026823496273666,0.04918784981057496,0.5071315661484318,0.6594596565716883,0.2610983475615323,0.4539529449254787,0.3132258023675522,0.22519932627130992,0.41240200222849627,0.25995848372180075,0.35944272787213716,0.6733663695923464,0.3989123091028778,0.6545765725574925,0.5435434095228222,0.3109770223226156,0.603429191106979,0.4074721074726356,0,0.38355329891636747,0.33587000820094964,0.2576291624533155,0.1401787221269915,0.614914775475144,0.44013239570421264,0.23905167482097975,0.6628010872017548,0.41488364325264704,0.594147141901154,0.3928826689916137,0.40959858750757355,0.27266851117388863,0.4596348270164938,0.617866854325924,0.5360919261214763,0.6670584360374798,0.4831659831804364,0.6565650731993223,0.7194554507494697,0.5280110224855132,0.4035916109990248,0.26088846598981924,0.14381933531974736,0.49873298761460527,0.5228743030269611,0.6012427424081465,0.42422253294257206,0.07006219468255681,0.5319173919332197,0.35021797752466244,0.5553682331419204,0.45454816872329395,0.4696685857306785,0.36071865301066314,0.6207621169508802,0.2592796899000761,0.6166033700123221,0.3761024680993625,0.23048037310124567,0.19505427246635224,0.3782923390709019,0.5649678903502571,0.30687824947587344,0.45810780623631164,0.15667108373339764,0.5553682331419204,0.5838567166659487,0.26562307048037537,0.31482265685329,0.5248773120197986,0.6362938190419202,0.2589952754478526,0.34823295356498885,0.40099499819380396,0.10463952416838912,0.48562895173863946,0.3186542518779108,0.48918775512439794,0.19918499116764646,0.6485471913638226,0.4358668424571196,0.4722944406853301,0.6652247002911034,0.14279676211352646,0.2648982424193715,0.3915528299803966,0.6585720942438796],[0.4504580445303128,0.3815253682020233,0.6504076120360635,0.3208890440608875,0.6067109463506728,0.459392221407369,0.6584895369582245,0.057857407951967706,0.2091983189883309,0.5591353885730885,0.017143225857919317,0.6560203342505438,0.4017700273532829,0.3297187195088019,0.3145205595804422,0.329613659637715,0.14604154938173658,0.6832889992286967,0.28294222027187227,0.06044985722122581,0.38355329891636747,0,0.31272052771742775,0.3360857166758742,0.46648222224075364,0.46362289007689295,0.2619997131003721,0.5982712576328671,0.2727104921064625,0.6230309850434544,0.5336461651681187,0.6967541994007093,0.10051600451148099,0.6662547745866565,0.6092947728895203,0.22039376944311623,0.3444917055277136,0.3671023773660256,0.11019841143359525,0.48382132914089176,0.4025797281103672,0.36985706118254785,0.6805016243359244,0.6508878441925149,0.3953891097933228,0.6225434849289035,0.14392157482261514,0.45489129063603817,0.4128020853157068,0.406900632131392,0.25083231444236864,0.7068367600220726,0.1819439822314222,0.3813482941023832,0.34973702527748174,0.5492669168906805,0.2387574816156247,0.4952409009315612,0.2599305254805435,0.6732835997503068,0.6277023707135932,0.33671956783494655,0.47908861016621157,0.260712280502296,0.419531235148659,0.2929888643572298,0.5152635983331535,0.2777221533869352,0.26679838613457224,0.5468244824672696,0.5448702878106859,0.30588447081147774,0.2651737028455537,0.4475752872218719,0.2546511858804028,0.6501358617040045,0.29783689303897715,0.2039248635482653,0.6649959407186263,0.09356763276579858,0.2884503493824168,0.2648678368794545,0.6605638180055184,0.644291853731224,0.5195874218872367,0.2507000739818158,0.6562162464263696,0.211970508698501,0.30436221176469036],[0.33997457923269564,0.7073495681335166,0.6051508801840936,0.29436950235894516,0.7939276389583991,0.7714811781751852,0.5550852197977969,0.36735206061343906,0.08976911050338415,0.35591918771166675,0.31978704011648734,0.530178602727114,0.07616536459755609,0.6522932147010594,0.053408449062466654,0.6555200901934323,0.4204696443802201,0.6496822850908768,0.6095527420877911,0.3836351640186905,0.33587000820094964,0.31272052771742775,0,0.07597397248443162,0.29572897269417653,0.7605922789436578,0.12992224997912286,0.41083073814912124,0.5632016783978099,0.7420618088129611,0.7984226298264199,0.7421294534201729,0.2335447666203725,0.5274096780499314,0.766304107534207,0.4787562334930345,0.6478603244074682,0.6937366260022868,0.3180122703989001,0.7888987309007099,0.728467579054813,0.1840767559430408,0.7493854581005613,0.5032246543801617,0.21684362725322845,0.7963151319806603,0.34942406495743805,0.7496079183859669,0.0969828318077306,0.2875382578731691,0.573234673796168,0.6950204229216549,0.36206517027128765,0.10573905292507643,0.1226421260707854,0.24828018634845916,0.42439788546922547,0.23797816218814002,0.38336886868094056,0.7245039561185417,0.5156835755772808,0.1350910070804371,0.157413201394327,0.586704647695558,0.11716028773480983,0.5811992191001065,0.3530010322282076,0.26703694724443033,0.31878249953730997,0.3031941650875207,0.26713328797056546,0.2073671500364061,0.5785422649094306,0.17996974528690543,0.050981535129919604,0.7403926510005118,0.22248624160564667,0.22876472077042345,0.6668081972334141,0.36498641851293706,0.12334707548787226,0.5664997885580155,0.7694785515598702,0.7888728412257706,0.8173365484041609,0.20584569787714563,0.5850262801135142,0.12047255611882794,0.6244085713408143],[0.25249620549917406,0.7198927350951211,0.51854481188542,0.22514442833138293,0.7428178543133978,0.767745485931836,0.46544563114487,0.4000236758442932,0.1286755825460713,0.2690271221778157,0.3504364505625177,0.44025042854709945,0.09246570517847738,0.6796457206590314,0.14327757364169855,0.6773881959434387,0.46624763236601974,0.5635924794955677,0.6287844969767934,0.3997123974455321,0.2576291624533155,0.3360857166758742,0.07597397248443162,0,0.205804633168762,0.7479064731466417,0.21439791054638668,0.3229385841692068,0.6079386789859578,0.6767624799709879,0.7709060857661449,0.6641160285061011,0.28208891753872695,0.4375999460258122,0.7085558085098016,0.5309741662263846,0.6411695694004694,0.710052094816494,0.3700729075273054,0.7802449359528639,0.7500390417097021,0.27337754557673927,0.6748596876053535,0.4135646661564521,0.12740437958941864,0.7418172248632361,0.4055911072344758,0.7359943937595993,0.15291099532490254,0.20113544123328167,0.5821776713342771,0.6105257467406339,0.4242025595206839,0.18652676997662454,0.21138506087525338,0.19925042191986675,0.4894502285083738,0.16086865882789533,0.4563752596868518,0.6476549106743481,0.4259567492025462,0.04923547656718448,0.14286479230957871,0.6011800566274588,0.07220605733699101,0.5693780743302296,0.26312723180906633,0.35017817279175445,0.39777403037764086,0.2235249880596711,0.2009891670258203,0.29535783605599225,0.6131326707594503,0.10501482596606211,0.1216938066894237,0.6696834136778078,0.15387684212072622,0.3024931689619362,0.5842203077300774,0.4081905466238456,0.06043147626948051,0.6069017144574812,0.7016170011606997,0.727856191586877,0.8040311237609428,0.15303387419832973,0.4966874135900944,0.19060374492838883,0.6543298447861269],[0.06845503238786002,0.7952049097012466,0.31568746651336577,0.16900796736423224,0.6557651543782274,0.8037649408155405,0.2476495025976332,0.538080665064076,0.3212025373736801,0.08146308557599184,0.4907524198403439,0.22053027173546852,0.2806377365136485,0.7880538196122844,0.3629804923532427,0.7747020605416466,0.6207858152343964,0.3620738981332245,0.7234202481816346,0.5085446377326679,0.1401787221269915,0.46648222224075364,0.29572897269417653,0.205804633168762,0,0.7636127871523514,0.4302774463446249,0.11860411539936776,0.7531471005694393,0.5488530485417688,0.7478953447831207,0.49220743720487636,0.45645666077265745,0.21827420111065016,0.6031828434293861,0.6927853084129567,0.6781058251021942,0.7939994036342235,0.5410649485505626,0.8039428515811587,0.8432218618685507,0.49239327388406146,0.5152661822375901,0.19503202657348495,0.06848157754190685,0.6446573776656438,0.5802071880222002,0.7501260246390256,0.35122591544472354,0.06088599159512962,0.658494010765454,0.4148115717223325,0.6066122349837607,0.3997123974455321,0.4300933294601395,0.22180860221869503,0.6736289387011782,0.11900582438604916,0.6533498085195318,0.48067913992123334,0.20776716029765122,0.15237089411199856,0.2692618746670997,0.6877615478437555,0.21229469996276923,0.6001851204660544,0.04380876706654822,0.562511327294528,0.6042242765456645,0.11195053334618123,0.1684405619221367,0.5133858983780962,0.7391389903531044,0.14254356996257914,0.33445365850459374,0.5237701974030528,0.15656044985624484,0.5053856242461789,0.3971598056586547,0.5627238310408363,0.18947220305803458,0.7441743831682199,0.563931433264916,0.6112125109867567,0.8152352346436875,0.2023273648028185,0.28570757175784495,0.3965286718403999,0.7691353186378468],[0.7007676338988296,0.19969763579926503,0.7374680715228378,0.5817793216527511,0.3419434201159862,0.06509783920646153,0.8144128941265687,0.45177295346888086,0.6615050457736052,0.8536339922886322,0.47579154989840405,0.8390216791992481,0.8405631618016111,0.32083758353335196,0.7802476908273852,0.2777905937812473,0.4874906009911919,0.742813879005851,0.26830715982505193,0.39124516849418667,0.614914775475144,0.46362289007689295,0.7605922789436578,0.7479064731466417,0.7636127871523514,0,0.7386474798366619,0.8657824074486541,0.4585154943430512,0.4788644608594327,0.12204215754249126,0.6391011115198262,0.5774741064599652,0.8610965057210643,0.4030987641375187,0.5173802394517318,0.10589432702869585,0.23092751161132485,0.5518713865585777,0.03266271242142818,0.2765693792587024,0.8474155340538944,0.5930528280202789,0.8602922773831277,0.7304188808839152,0.3771276122262698,0.5622531816704349,0,0.8699012192989011,0.6887897218849633,0.22606231254235037,0.7282627337576704,0.5940535878178136,0.8503620334101808,0.8242773279412924,0.9411829963494636,0.611607419711392,0.8557985026233691,0.6712031208511542,0.616196836043279,0.804140447687629,0.7166982470680018,0.9046487250908198,0.24760245369883474,0.8326438947243265,0.16551874054714477,0.7853974089239869,0.742152603125661,0.7133321863472892,0.882766466720431,0.9134716884390994,0.7815015442295591,0.38195941766550007,0.8283455127918055,0.7143543027711873,0.5415422261719913,0.6195229721064092,0.6755609097695231,0.6833215548247047,0.4946734037380151,0.6776520062586758,0.425673787125459,0.5161769977175588,0.44425261685270856,0.042839493639685346,0.5930433662821072,0.7738304671529855,0.6856256114126007,0.3424325879113116],[0.4627034550145105,0.6472815308773566,0.7212673834799086,0.38707068308140963,0.8351264189316359,0.7349992544702557,0.6837015192029697,0.2937115161649049,0.11446047017713853,0.4973425453470843,0.2554035896388868,0.6627885593664177,0.20172588628000185,0.5712808114116067,0.07677329765366309,0.5827302389605852,0.3208890440608875,0.7638241456114131,0.5424277233469398,0.33603649058162083,0.44013239570421264,0.2619997131003721,0.12992224997912286,0.21439791054638668,0.4302774463446249,0.7386474798366619,0,0.5512083287946626,0.45910786802583914,0.8099872164368299,0.7995439255591784,0.8354681001349201,0.1521339446267619,0.6623402335095168,0.8198856398874289,0.36653855344952035,0.6200477369506051,0.628268574459198,0.21600670083243706,0.7597500368294863,0.6540531394706366,0.0977909627614375,0.8352310955464757,0.6392430644984081,0.34851600830101365,0.843450278190715,0.23764684549883985,0.7294644718785203,0.17311879844594075,0.40912760647350643,0.5237981700523041,0.804290201096609,0.23998391009936434,0.11913123821862685,0.07642294972430312,0.38485220908210843,0.2958446410123672,0.38185371380194777,0.24597457773086026,0.8155857682981302,0.6452297626145277,0.2641911913455393,0.2825762927429113,0.5279363325349319,0.2585971986681698,0.5644607690917125,0.4880400677929724,0.12316170391571139,0.1765592768372941,0.44701615140754186,0.4094099995711995,0.07118746700825707,0.48901813428448776,0.3238457692308681,0.08223670334672467,0.8187135671902597,0.3215418245621347,0.09643913973652347,0.7715925949838837,0.2737228514311479,0.23501119795857295,0.46867964026074416,0.8417567638135016,0.8479398949218132,0.7949006585435283,0.28825855887619406,0.7070799341870679,0.04476669982875894,0.5403889652073318],[0.15283886425276505,0.9150023885077131,0.28316597875415667,0.28566741189158823,0.7123150331329094,0.912201308861363,0.17954478060222817,0.6699809873182585,0.4493974103153749,0.04295014212597922,0.6229558441584887,0.13666624212988807,0.3761185943364178,0.9149128847845955,0.4764545198484574,0.8995913548552051,0.7532326616574013,0.3270400080870332,0.8482454133585353,0.6379555650436449,0.23905167482097975,0.5982712576328671,0.41083073814912124,0.3229385841692068,0.11860411539936776,0.8657824074486541,0.5512083287946626,0,0.8848669090573992,0.5824331541916664,0.8348583879746182,0.48857151871853577,0.5882870672382526,0.12117060856775812,0.6502445751788981,0.8253272618940738,0.7890979853281097,0.9158604799662035,0.6733556259931184,0.9082097500620038,0.966698349238921,0.6014414274618043,0.5231427190486703,0.09401690701952747,0.1976861310325559,0.6953116079700853,0.7123873307453374,0.851998294911874,0.44521793394003,0.181111544141332,0.7802476908273852,0.38521755822104725,0.7382538220351585,0.5022290008860805,0.5392604907575361,0.2548150638165015,0.8052378923412176,0.17725996842131805,0.7828948413541076,0.4832187947048808,0.14429012706078911,0.2779143082683721,0.33990966422652186,0.8113433595389162,0.30400459310991723,0.7111105203882311,0.07141843021427881,0.6861777848607346,0.7308335716055928,0.12099846054402001,0.19409818022319827,0.6319166871511759,0.8689485934034163,0.2278797138345001,0.45700807292570317,0.5439273917906758,0.2869571401892558,0.6328649296846474,0.3819815220947704,0.6952317850251001,0.31913738920045515,0.8752305355209017,0.5888349419106925,0.650033308819906,0.9147538766382773,0.33366858741724115,0.2381159918680084,0.5223788835355486,0.8971824219354143],[0.7345126988639757,0.26695030970093203,0.9132673058526092,0.6016178344666243,0.7392014506019153,0.4086463932603228,0.9352626863911434,0.20122824196417238,0.4681376069298695,0.8456226148421774,0.2495951438243457,0.9367068082785794,0.6524655997318721,0.1430948296933095,0.5405265953466283,0.17895591301125943,0.1288231523173374,0.9408679745783406,0.17626620080748126,0.24262390404916945,0.6628010872017548,0.2727104921064625,0.5632016783978099,0.6079386789859578,0.7531471005694393,0.4585154943430512,0.45910786802583914,0.8848669090573992,0,0.8098481262948858,0.5795661096438554,0.920619160519987,0.31590642383007533,0.9485696819763655,0.7688321150077411,0.0838970183929891,0.3591503704757995,0.23543266784201095,0.23247722937102702,0.45111478758419066,0.22785596374939446,0.5357711299194523,0.8930813576468697,0.934504334231886,0.681312419459953,0.7656781915469822,0.20758082562980584,0.4576812100490219,0.6426873786718079,0.6926943634978804,0.23503865911551244,0.9554090391926003,0.21281268317518665,0.5921505960455204,0.5459610810642367,0.8186767798942484,0.18557504858801044,0.7755796196656838,0.2581121032569408,0.8959500158330787,0.9068733064656485,0.6183099480270497,0.7345316994600346,0.20171574175158152,0.6856369484399756,0.36713108491092583,0.8015746710527475,0.38292257874451063,0.32925047808931973,0.8301864687330219,0.8219297860464447,0.45227300742663046,0.06274844436631231,0.724573579237695,0.4985948067932449,0.852896985325377,0.5841823582411287,0.35320667630170904,0.9107085639487329,0.18589826655956182,0.5702012478575451,0.018888353165684664,0.8503250110159619,0.8097003795415395,0.49993077231246086,0.5372462389016781,0.9259300562375712,0.43426190456713115,0.11159160910452787],[0.4664548972771249,0.651169567039342,0.32910382227634566,0.4376653530493844,0.15303387419832973,0.5553432529062493,0.44062840899789874,0.6679461825186579,0.685453578796197,0.6025607767195438,0.6525690093498101,0.4820953400883173,0.7823056670299691,0.7332941918112887,0.7962992679073206,0.6955340622032213,0.7512891409515339,0.3109138896963781,0.657600692470821,0.5920860672733385,0.41488364325264704,0.6230309850434544,0.7420618088129611,0.6767624799709879,0.5488530485417688,0.4788644608594327,0.8099872164368299,0.5824331541916664,0.8098481262948858,0,0.3706457722504564,0.1565941286335721,0.7105109105858372,0.5086613490512581,0.07548299855992113,0.8160089812419123,0.48805968048439813,0.6728540711092663,0.7471824317741669,0.5239858034833234,0.7295957941500838,0.914621054523427,0.10476859598995708,0.5215046674069245,0.5724082960992133,0.12134860164585698,0.7795528153077371,0.46701247424702896,0.8423625223621103,0.4941311105784046,0.5771281125088675,0.2731404427292111,0.8179640336925178,0.8610455598448021,0.863978712204445,0.7832362668859152,0.8689919591161877,0.6800568595496855,0.8969086312907396,0.13825572112733553,0.4520030918962504,0.617364103353442,0.8070117398940322,0.6174334123696593,0.7347607648416534,0.4420334489571599,0.5328039710159853,0.890744574271198,0.8962874939059501,0.6691983790521544,0.7312359204118705,0.8870031316574496,0.7486244475088266,0.6870268833296792,0.7340079102528644,0.05251337133599113,0.5093307580327793,0.8129347877013854,0.2377815973461873,0.7186988140499123,0.6079083340607288,0.7820981849004829,0.026749472383250202,0.056040655389848607,0.49956288945556765,0.5226312376556084,0.37942859026095554,0.7525561119595536,0.738031276080835],[0.6763905813531117,0.334199234824822,0.6654904157272968,0.5737802934770437,0.21771885093989685,0.19905021750787563,0.755382460414581,0.5374803824328453,0.7061614361495017,0.8314490726047316,0.5518061308986948,0.7857969288745426,0.8708225276211347,0.45110537846611176,0.828116896617216,0.4080246621199238,0.5882543696485667,0.6635038910396693,0.391554853296228,0.4675035167065567,0.594147141901154,0.5336461651681187,0.7984226298264199,0.7709060857661449,0.7478953447831207,0.12204215754249126,0.7995439255591784,0.8348583879746182,0.5795661096438554,0.3706457722504564,0,0.5384629985855641,0.6475164167361466,0.8098521101100898,0.2870843555374292,0.6280368704645616,0.2073733285264747,0.364529291946708,0.6375027438012442,0.15707293082568216,0.41208564526821156,0.9108715205570677,0.48872605669128577,0.8130951840267158,0.7287184007186904,0.25403549597227815,0.6541677650427886,0.11644076835592758,0.9093431546066947,0.6746452497504976,0.3346773036182164,0.6405317920304548,0.6889317563909508,0.8992536003158562,0.8799154679064848,0.9477089248908016,0.7153258615561162,0.8546572578547075,0.7690487010098637,0.5173292793834794,0.7512451807148893,0.7304295357064926,0.926460950303533,0.364148292627262,0.8519224933437243,0.2290980180383145,0.7601458351740724,0.8230888602414826,0.8019622474393779,0.8720827851259758,0.9124741225211913,0.8527493193951221,0.5041877815879343,0.8356264956788779,0.7604482018066998,0.4362800912706605,0.6241518933892715,0.7513009347317182,0.597861929812517,0.5851472650525779,0.6973804002522089,0.546931278033152,0.4045128272827099,0.3256802489693634,0.12029136431523664,0.6068453272174196,0.7072904165748021,0.7431390624300882,0.46985855754213945],[0.4146999326058741,0.7955911438466824,0.1984690726728798,0.43655032095072643,0.32316256707791347,0.7131471500694694,0.3156036602784018,0.7526763438939621,0.7070996576681018,0.5217906159660106,0.7277131301166387,0.36167730319393626,0.7636986035034606,0.8642861249027848,0.803717781284853,0.8296886783894781,0.8416557623599463,0.16532358144442003,0.787192314239151,0.6818200623732543,0.3928826689916137,0.6967541994007093,0.7421294534201729,0.6641160285061011,0.49220743720487636,0.6391011115198262,0.8354681001349201,0.48857151871853577,0.920619160519987,0.1565941286335721,0.5384629985855641,0,0.7657949971897964,0.38778271830984484,0.24570613483696604,0.9116450987892625,0.6324910456499981,0.8140202456110567,0.8180169602225903,0.6851438134064493,0.8716048397492943,0.9307213912486502,0.039643582223869746,0.4064409408681005,0.5380098151460517,0.2900846792582381,0.8541886208727448,0.6265372914065966,0.8301437014053556,0.45646886972065587,0.705080511530033,0.11438590759342139,0.8916283698046039,0.8612115137259068,0.8741755450426455,0.7255476146392517,0.9492820384193376,0.6243884350660396,0.9658470983079678,0.010851922095794417,0.33807786168477644,0.6011662737906651,0.7712266010936548,0.7456577542963763,0.705352796037768,0.5758557222071983,0.4602903956152688,0.9356789315506943,0.9518815884169967,0.598320840995371,0.6679397653556199,0.9180040127639522,0.8669378023020884,0.645039299546308,0.7487162535325509,0.09022951564438188,0.5067556400831025,0.8600548073127814,0.09530610215715708,0.8005760480432856,0.6049127305582346,0.895778975150024,0.1323108218830372,0.21816111652950623,0.6643898385667105,0.5338419083640662,0.2500254460027327,0.7818177920069036,0.8644343422179939],[0.4603474841099713,0.4815790202509858,0.6908683445905626,0.3473975963477903,0.7096270059974162,0.5702087387011028,0.6800667112800812,0.12853745696260468,0.13988567117224313,0.5419064346534888,0.08963983038830328,0.6698514147149065,0.3232079947274536,0.4109884477991726,0.21797841566977816,0.41937284780698797,0.1731290317694818,0.7283235300774246,0.37750226683804133,0.17245682884341357,0.40959858750757355,0.10051600451148099,0.2335447666203725,0.28208891753872695,0.45645666077265745,0.5774741064599652,0.1521339446267619,0.5882870672382526,0.31590642383007533,0.7105109105858372,0.6475164167361466,0.7657949971897964,0,0.6758448466503304,0.7057294891291626,0.23501119795857292,0.45801915698154105,0.4633003724122927,0.07412724784975455,0.5963957554285674,0.4914807226501805,0.25674153322059917,0.7557979143063988,0.6569304327108039,0.376998217120484,0.7228651766011427,0.11118139825086099,0.56896534788916,0.32007209323109415,0.41028441699897267,0.3579779075043395,0.759195225008712,0.13631721247085038,0.2791709743783952,0.24202736463000837,0.48987598115384146,0.2033265485600046,0.4545925319538392,0.19321293578552254,0.7434984082843898,0.6454156081538386,0.3027937858373817,0.4049099988861382,0.36193932107463755,0.3565811120779281,0.4074227833613147,0.5109817903698205,0.16975384230186105,0.17284814313614694,0.5135435359821922,0.4970257891174456,0.19148026373804242,0.33307329899927324,0.400660043549423,0.16930071211267234,0.7306337848902097,0.30258995037612774,0.09273007784550683,0.7205107515766831,0.11769111437164367,0.25702730388015355,0.31914395766543435,0.7461371756783666,0.7383687056127701,0.633199719255667,0.25646961967688625,0.6884506687052198,0.11022484285872108,0.38143130746073123],[0.202797252027511,0.9405049979250677,0.17536258282901898,0.3330063045503908,0.6560215588795487,0.9165487935049684,0.058377281428564125,0.737560876505109,0.5500394344336889,0.17551276336720048,0.6938741904503202,0.012680808496645515,0.5032183085989853,0.9580608574870686,0.5944587351118243,0.9373742894787792,0.8255901917397062,0.21275961115741185,0.8865829131555379,0.6939240316432314,0.27266851117388863,0.6662547745866565,0.5274096780499314,0.4375999460258122,0.21827420111065016,0.8610965057210643,0.6623402335095168,0.12117060856775812,0.9485696819763655,0.5086613490512581,0.8098521101100898,0.38778271830984484,0.6758448466503304,0,0.5865384339090947,0.8994991434926009,0.8001229757164187,0.9459463475560702,0.7564339877904235,0.905939048870098,1,0.7228429056499478,0.4298321096721121,0.013199427679704783,0.29991061708116823,0.6336120501484267,0.7961949623286834,0.8471421177026747,0.5733743858041181,0.2516078972701649,0.8122889189819436,0.27088340289451857,0.8256318880403043,0.6270494874723623,0.6604389246454292,0.38990316568401806,0.8923719025778395,0.309441524679938,0.878240897896007,0.3875314357421781,0.04498983335989476,0.38421530406751064,0.4730700024811363,0.847117979220699,0.4316371785804334,0.723916712803133,0.16061191129948416,0.7935819282519903,0.8332458389591082,0.2559969111088397,0.3292217894922054,0.745608787340079,0.9228898955310675,0.3559339757342352,0.5663603065940239,0.45993271530701185,0.36024754282857746,0.7339011336140218,0.2785236801836165,0.769555348102649,0.4181156855436157,0.9349402229963314,0.5070391848846479,0.5784873331773778,0.9052192852588506,0.4075344033628518,0.1240147296391353,0.6268783741638899,0.9443049717350024],[0.5213003249084055,0.5875582163369909,0.41253796998701714,0.4718262573114435,0.06359946346476678,0.4811859035860757,0.5206812018383838,0.6462645215621465,0.6998088280718782,0.6651864448131907,0.6372268680088434,0.5602109895141542,0.81495813236122,0.6790398025923003,0.8158590356143123,0.6393791261535892,0.7244458083770996,0.3975168855109571,0.605373924291813,0.5690146090100441,0.4596348270164938,0.6092947728895203,0.766304107534207,0.7085558085098016,0.6031828434293861,0.4030987641375187,0.8198856398874289,0.6502445751788981,0.7688321150077411,0.07548299855992113,0.2870843555374292,0.24570613483696604,0.7057294891291626,0.5865384339090947,0,0.7848278846890443,0.4269106380184678,0.6115851225390542,0.7325013886921177,0.44686186951456747,0.6670909643443126,0.9279348280102453,0.1931720073231334,0.5974125157656456,0.6167399794610833,0.033592125735748296,0.7620100797339568,0.3921075149704814,0.871003336524547,0.5422600790613399,0.527526363808185,0.3619276797139049,0.8003997525989607,0.8832750449201273,0.8810556738293196,0.8336460371862471,0.8466909973762088,0.7311929793007018,0.8810663688008796,0.22769304314101552,0.5287069609918971,0.6522423115441011,0.847330120614098,0.5668747157939914,0.7732953059129164,0.39116619136849606,0.593738636549234,0.8887883928154181,0.8882235080193822,0.7268098784064578,0.7847665955703695,0.8927619905841833,0.7032356925619783,0.7321143855137164,0.7509574110998107,0.1415284373071588,0.5410964841885809,0.810916095055667,0.3251709498270636,0.6977828316920072,0.6367176395421419,0.7394628559026144,0.10422369567775468,0.02843465909474035,0.41878928095365847,0.5471165371706808,0.4616172244677143,0.7614501835914032,0.6870538034153725],[0.6830846094941959,0.34504749357936493,0.8822844538245804,0.5551102113603508,0.7642175203103407,0.47757584431464195,0.8928343782458168,0.15146074452790342,0.38883720802498656,0.7825391915054768,0.19177692428332155,0.8898653612259987,0.5666698546549642,0.2305161742778185,0.45076946585301236,0.2598356458862515,0.06043147626948051,0.9135070747884185,0.24288917951127612,0.2160602126523128,0.617866854325924,0.22039376944311623,0.4787562334930345,0.5309741662263846,0.6927853084129567,0.5173802394517318,0.36653855344952035,0.8253272618940738,0.0838970183929891,0.8160089812419123,0.6280368704645616,0.9116450987892625,0.23501119795857292,0.8994991434926009,0.7848278846890443,0,0.40744095607402075,0.31584672261484,0.14745747030584325,0.5169935414018376,0.3178408655521895,0.4390035118638911,0.8891497457700555,0.8833942202893115,0.6170087751515254,0.7874479623474031,0.11618673588266384,0.5143636321714863,0.5521308845990496,0.6376332926762948,0.27997878541091714,0.9336258941820708,0.11591746647307155,0.49909613490237936,0.4516701763745577,0.7381778292684366,0.09088894719891781,0.7025623183729586,0.1624199031490774,0.8873912952403512,0.8618762638547153,0.548084739584499,0.6492601515822763,0.25602426369745196,0.6048557201164496,0.3978059131204779,0.7441870091032716,0.28513295575842246,0.23159112374310814,0.7600935448548831,0.7459154988822921,0.35522126003665944,0.14161284519422598,0.6493244783307188,0.41382047567550645,0.8529301120472473,0.5278414412644372,0.2585490290731285,0.8903902093817629,0.11638832288681938,0.5008283444290368,0.10459339303221807,0.8557220888628061,0.8240658778878845,0.5640014715428944,0.4802233277577511,0.8898363117376277,0.34665208375639894,0.1972514919994261],[0.622355687062157,0.1495533460505898,0.6974465268705229,0.49518074182183025,0.3818785878387369,0.1135992969422742,0.7608803528460351,0.33217291580252867,0.5471691786055308,0.7710524242153368,0.35604338873153996,0.7800713595890008,0.7300943868567566,0.24199317360919878,0.6643289566376402,0.20052041917152458,0.3717641337818483,0.7098662200221099,0.17434863609435336,0.2716591176265677,0.5360919261214763,0.3444917055277136,0.6478603244074682,0.6411695694004694,0.6781058251021942,0.10589432702869585,0.6200477369506051,0.7890979853281097,0.3591503704757995,0.48805968048439813,0.2073733285264747,0.6324910456499981,0.45801915698154105,0.8001229757164187,0.4269106380184678,0.40744095607402075,0,0.17110214235858318,0.4324319148181557,0.12726694727936425,0.22758550063218808,0.7282719456413714,0.5924902741419097,0.796039660534352,0.6367378145851141,0.412876418399129,0.4438985356258314,0.0986953048002532,0.7560650510286275,0.6036364723384662,0.11357142033731947,0.7044530280058197,0.4765392796259073,0.7339278292029243,0.7064166075992668,0.8406511716849108,0.4975901419951992,0.7601680928192525,0.5548083167302399,0.608210837556173,0.7455580167948277,0.6147386193881237,0.7972016762706489,0.14348442702496653,0.7268287073838376,0.06410562165600092,0.7059650596517855,0.6224777404928062,0.5945733504665047,0.7924394548111631,0.8171842098453084,0.6617515820728517,0.28469096599916544,0.728427793384426,0.5992474451827395,0.5441160984413737,0.5241438935871758,0.5557154410015273,0.6582857438154689,0.3758492688793029,0.5732286188576912,0.3267230558411188,0.5281104248993522,0.4692912477961996,0.16122653649013763,0.49304478412994246,0.7278635651417367,0.5677931125269149,0.25546957877030735],[0.7508919775612292,0.018888353165684664,0.8628013259124668,0.6162389333725528,0.5636663467052381,0.16667315496752613,0.9146136913227149,0.32084738614841596,0.590109874553061,0.8893105361767113,0.3633488988660533,0.9283084519506928,0.7824797866256936,0.08136845237919153,0.6925794078586246,0.04266104014561643,0.3134998632703472,0.8795629299036593,0.07188805059187085,0.29732069647568615,0.6670584360374798,0.3671023773660256,0.6937366260022868,0.710052094816494,0.7939994036342235,0.23092751161132485,0.628268574459198,0.9158604799662035,0.23543266784201095,0.6728540711092663,0.364529291946708,0.8140202456110567,0.4633003724122927,0.9459463475560702,0.6115851225390542,0.31584672261484,0.17110214235858318,0,0.40621448663347615,0.21189786481126976,0.04373296235766837,0.7251491998451384,0.7756263815677712,0.9383684596895102,0.7388614880105966,0.5958125146272389,0.40107210495902196,0.23443161020939357,0.7927117482185116,0.7225325269994061,0.12168775803184498,0.8790745941646348,0.42320335050864194,0.7562408417874975,0.7186136995163094,0.9210349046331511,0.4196529836783343,0.8542730445971954,0.4885350538877028,0.7895133654957478,0.8947457346541041,0.6985728110870365,0.8584950999411377,0.09510566998036252,0.7955090465007918,0.22567572289162932,0.8306622711004288,0.5907940458878708,0.5477289195308221,0.8966059247991485,0.9083520948576602,0.6474829257887036,0.1618421242548101,0.8134218333402323,0.6352452743101014,0.7280032801548282,0.6275561587428298,0.5396148374130202,0.8327695503946891,0.34504749357936493,0.6521441888397244,0.20430612244508473,0.7130057084806368,0.6539741182486251,0.26161490883903765,0.5878236856896859,0.888456293084662,0.5863348162498745,0.11010144802754963],[0.5399284697804617,0.42836791193907375,0.7596948917081522,0.42012892576453414,0.7273793356280392,0.5333784030076869,0.7567452627922909,0.08656341215000303,0.22765682364227657,0.6280913965742834,0.08132253578279305,0.7491263767376903,0.40664906704367637,0.34274248169104726,0.29438369440151035,0.35735162025652917,0.09131588218065685,0.7950047929302259,0.3211576539819386,0.15812033463373507,0.4831659831804364,0.11019841143359525,0.3180122703989001,0.3700729075273054,0.5410649485505626,0.5518713865585777,0.21600670083243706,0.6733556259931184,0.23247722937102702,0.7471824317741669,0.6375027438012442,0.8180169602225903,0.07412724784975455,0.7564339877904235,0.7325013886921177,0.14745747030584325,0.4324319148181557,0.40621448663347615,0,0.5645671454257601,0.42716428800396944,0.30555252436842967,0.8032831835411947,0.7384730308771503,0.46274017467031014,0.7444585961705068,0.02587328752940402,0.5450772669002074,0.3967424871490914,0.49141308075511764,0.31844615528497144,0.8220292449680462,0.0601367608773398,0.3487219331962393,0.3052990547867475,0.5767800640452344,0.12369521612059288,0.5426552651188481,0.135799447885079,0.794835398669437,0.7233353077617705,0.39018478071071205,0.4890154155360965,0.313585877766789,0.4434539043890598,0.39446606406187706,0.5946003156480876,0.17697226535288677,0.15065857431807958,0.6013778730029297,0.5849810756960362,0.22739973553679063,0.2591635563978743,0.48871735158953855,0.2531359240674943,0.7737818627170268,0.382232182870224,0.11946578204550938,0.7814351849899122,0.047337237030094924,0.3438563356086863,0.23942433289552761,0.7846720846951455,0.7679441847128207,0.6055434724000293,0.33503405402933595,0.7609735302983369,0.187830768276021,0.31124709147789364],[0.7426505119424026,0.17929586330295247,0.7838343526991224,0.6215234666440738,0.383594577545653,0.03192350930063362,0.8599743845098706,0.4656258704488018,0.6883774646816068,0.8947827530657992,0.49347452746585996,0.884074222896581,0.8706160202934191,0.30564410072917225,0.8054498620445028,0.2634231854961898,0.49334300104486384,0.7893850291448409,0.26217804844974557,0.41014256776342134,0.6565650731993223,0.48382132914089176,0.7888987309007099,0.7802449359528639,0.8039428515811587,0.03266271242142818,0.7597500368294863,0.9082097500620038,0.45111478758419066,0.5239858034833234,0.15707293082568216,0.6851438134064493,0.5963957554285674,0.905939048870098,0.44686186951456747,0.5169935414018376,0.12726694727936425,0.21189786481126976,0.5645671454257601,0,0.25131113347839856,0.8670570146333748,0.638752169674774,0.9047288094194025,0.7683204546044342,0.41922071621977774,0.5719010798038467,0.0461886349315048,0.8972580601074233,0.7291057003674639,0.23315992202077618,0.7748601764445815,0.6019482948978914,0.8749192158533005,0.8467469237183176,0.9766942758098159,0.6146224598558326,0.893163669170635,0.6769988226070955,0.662340637904759,0.8492044122461452,0.7513967077911636,0.9366702716557725,0.24802558960633583,0.8655461087839414,0.19717896517122951,0.8271774249921384,0.7554738155375277,0.7233965103595208,0.9218883414971087,0.950647051926057,0.7985478556629729,0.37449139198095616,0.8640335373491334,0.740461170312278,0.5870901776647287,0.656681308470316,0.6914625518238626,0.7299341088386074,0.505737807906342,0.7111467301446576,0.418470007366551,0.560909336368372,0.4876214810170516,0.035768368479548666,0.62841334701474,0.8199184381487256,0.7082214908534192,0.3303952678669117],[0.8025559952767477,0.06597517300372527,0.9195990579343682,0.6672660283019364,0.6174095882535213,0.20544592401747236,0.9699025357114075,0.3496708445956837,0.6253884831970874,0.9386311953897314,0.39520533565548693,0.9827655450933561,0.8179877031159479,0.07365402196361309,0.722879652358446,0.05902097847946909,0.3282321584794046,0.9367746993763085,0.10777811591505618,0.3364355694550044,0.7194554507494697,0.4025797281103672,0.728467579054813,0.7500390417097021,0.8432218618685507,0.2765693792587024,0.6540531394706366,0.966698349238921,0.22785596374939446,0.7295957941500838,0.41208564526821156,0.8716048397492943,0.4914807226501805,1,0.6670909643443126,0.3178408655521895,0.22758550063218808,0.04373296235766837,0.42716428800396944,0.25131113347839856,0,0.7464792803326926,0.833000462707313,0.991870217343065,0.7856946735123549,0.65009756067257,0.41701607124145523,0.28175708056961135,0.8241934721889128,0.7726227999992348,0.17382504589706912,0.9366403508558133,0.4349009125330966,0.7843004389196643,0.7443298478944484,0.9622643550597318,0.42267752156878613,0.8988477104379785,0.49385597686925414,0.8471132149666675,0.9493967387614133,0.7419272250710349,0.8956121118630705,0.1415284373071588,0.8347878224845713,0.2833398966964601,0.8813746346233663,0.6054798972978581,0.5583617685855974,0.9430995260913112,0.9520421293159128,0.6665634928343813,0.16301434145622054,0.856251501493396,0.6682128424632279,0.7851907295041631,0.6753724792911615,0.5600185211915926,0.8903360748750706,0.36707079656847447,0.694847583720357,0.20028438408042293,0.7696460979497182,0.709466729933466,0.3002868205083571,0.6343397479803201,0.9446859094602953,0.6155354954594042,0.1070208861872923],[0.5377778790756147,0.7461684787171375,0.8022769339768995,0.4802172400429042,0.945201860073582,0.8407266929406063,0.7527673080495743,0.39385289273158186,0.21523116536824444,0.5451692330124208,0.3600669760623263,0.726775541980248,0.21658634378084052,0.6613284883096169,0.11709978305195533,0.6768543346211946,0.405969674688254,0.8464163971508746,0.6396699937245712,0.44299447640418516,0.5280110224855132,0.36985706118254785,0.1840767559430408,0.27337754557673927,0.49239327388406146,0.8474155340538944,0.0977909627614375,0.6014414274618043,0.5357711299194523,0.914621054523427,0.9108715205570677,0.9307213912486502,0.25674153322059917,0.7228429056499478,0.9279348280102453,0.4390035118638911,0.7282719456413714,0.7251491998451384,0.30555252436842967,0.8670570146333748,0.7464792803326926,0,0.9338048215510187,0.6980198791332987,0.41467696323875763,0.9526862897150634,0.3178837250641177,0.838563695447041,0.15778783506272798,0.4850461388096002,0.6275970844017127,0.8904207531203203,0.30917163920822405,0.09088894719891778,0.04845156082227397,0.3927596312477461,0.3516420771850543,0.41733071401812993,0.2873858229568511,0.9118448175402293,0.7132362892759347,0.33301339869259,0.28245544674873657,0.6286415104512608,0.28689169420628896,0.6746531930840923,0.5491139376279118,0.14645979551847402,0.20809872009796845,0.4826392112356,0.4311041079983575,0.07024104007117486,0.5755509976460111,0.36143331672256046,0.16841656929390122,0.9201016357497865,0.4107515393866555,0.17253897029966994,0.8605278064961621,0.3663523440759776,0.31555801425589075,0.5500277962964156,0.9451924505244894,0.9548985243012779,0.9033950460159721,0.38384765943796445,0.7829851017215909,0.15589352307855828,0.6292434560291714],[0.43529556957899607,0.7559666617155356,0.24142728997749494,0.4413425838049099,0.27042696025850377,0.6682092342274725,0.35831600245973355,0.7331697426179016,0.7073999947986005,0.5525940128070651,0.7111738862753738,0.40338196006898747,0.7768654290279612,0.8296406987008055,0.8089948138547328,0.7938501124051263,0.8206727701101592,0.2128404204235836,0.7528586180730702,0.6603395611352412,0.4035916109990248,0.6805016243359244,0.7493854581005613,0.6748596876053535,0.5152661822375901,0.5930528280202789,0.8352310955464757,0.5231427190486703,0.8930813576468697,0.10476859598995708,0.48872605669128577,0.039643582223869746,0.7557979143063988,0.4298321096721121,0.1931720073231334,0.8891497457700555,0.5924902741419097,0.7756263815677712,0.8032831835411947,0.638752169674774,0.833000462707313,0.9338048215510187,0,0.44686661741994993,0.5545413814993039,0.23693276051245787,0.838371191876856,0.5807707837579045,0.8416426568671285,0.47314019165110416,0.671069387763268,0.1656055790753329,0.876260005830306,0.8690006320031569,0.8788917440051304,0.7505056983535257,0.9319426116469082,0.6481842277900822,0.9522473676189687,0.02894770718388499,0.37753859484808266,0.6125567169168472,0.7897175720677312,0.7116821217603909,0.7215470619195837,0.5393321691267325,0.48800574373904126,0.9296811983222834,0.942534978045191,0.6266103043683405,0.6943160706014194,0.9163580220207524,0.8366993952432819,0.6647546124979752,0.7514338702284087,0.038508995890776436,0.5129583803446389,0.8530802706454127,0.13988033780575582,0.7822026197506965,0.6122056490565421,0.8671923507487023,0.07871490264801931,0.16463884515790148,0.6162957820037073,0.5360103770756114,0.29338777892580753,0.7801388660167115,0.8313986046572659],[0.18648174730789585,0.9338189611446999,0.19443573943105472,0.3195960494336221,0.6654855854650626,0.9140259195502147,0.07966914633637934,0.7224281717848245,0.5285678447096923,0.14852646270668474,0.678029945812489,0.0328500715633974,0.47731092363004973,0.9479546091451653,0.5701169692475794,0.9282797169074527,0.8097216301444852,0.23400402696796765,0.8772990271840108,0.6808669928375854,0.26088846598981924,0.6508878441925149,0.5032246543801617,0.4135646661564521,0.19503202657348495,0.8602922773831277,0.6392430644984081,0.09401690701952747,0.934504334231886,0.5215046674069245,0.8130951840267158,0.4064409408681005,0.6569304327108039,0.013199427679704783,0.5974125157656456,0.8833942202893115,0.796039660534352,0.9383684596895102,0.7384730308771503,0.9047288094194025,0.991870217343065,0.6980198791332987,0.44686661741994993,0,0.2771815662364418,0.6441838191727587,0.7781605450209033,0.8463451901921071,0.5473373056691221,0.2331056859850807,0.8040909695551246,0.2924609306900849,0.8069810911418934,0.6015911767012992,0.6356158889242157,0.36275622633903515,0.8738441401606128,0.2826537558697803,0.8581875275301203,0.40496484167308855,0.05581758485292937,0.3613276614494676,0.4462079717299359,0.8382617663017795,0.4055911072344759,0.7192928472061915,0.13727510571038815,0.7712694426845081,0.8118651242927927,0.2288548462288959,0.3020685363727603,0.7221432550251681,0.9106529569374989,0.32974657090638954,0.5434389088100745,0.4749157018497531,0.3425729939608616,0.7126625230118729,0.29732069647568615,0.7532294532888115,0.3965286718404,0.9216173960616705,0.5216849349081634,0.591059903575435,0.9054775132107247,0.39009815083872224,0.14426247220800587,0.6048840050231085,0.9334102706756181],[0.11392264919435392,0.7426837665046487,0.3796704548498421,0.14170247842196634,0.6617139394921159,0.7639380654484998,0.32429966217609235,0.46624763236601974,0.23896518293036453,0.15162104256446857,0.41785228683625164,0.3006495346119589,0.21436557120128436,0.7258434198925015,0.2841887017764937,0.7155163438656231,0.546109550015799,0.42529788114844397,0.6645950228411772,0.44332294267337446,0.14381933531974736,0.3953891097933228,0.21684362725322845,0.12740437958941864,0.06848157754190685,0.7304188808839152,0.34851600830101365,0.1976861310325559,0.681312419459953,0.5724082960992133,0.7287184007186904,0.5380098151460517,0.376998217120484,0.29991061708116823,0.6167399794610833,0.6170087751515254,0.6367378145851141,0.7388614880105966,0.46274017467031014,0.7683204546044342,0.7856946735123549,0.41467696323875763,0.5545413814993039,0.2771815662364418,0,0.6549401561333155,0.5014930696414179,0.717358231401685,0.2835385355597081,0.06762784865521528,0.604399447359058,0.47436882923703677,0.526766191810447,0.32606091835142165,0.3527415774973667,0.20758946712497583,0.5937206344035001,0.11220008877334314,0.5717082504516385,0.523667957706308,0.28497197512965955,0.0703708711988486,0.22182716185018342,0.6309369408809101,0.1534068719557485,0.5598464837411343,0.12603570699292954,0.48016798213716005,0.5218396203958846,0.1438817266216191,0.17011821772058142,0.43210155993080646,0.6719232339649488,0.10142032092856912,0.25249620549917406,0.5560077382787657,0.0989378232747417,0.42308759726832534,0.45117359025984,0.4876214810170515,0.10766123397535583,0.674181200030599,0.5924108976294882,0.6300393710037643,0.7840828516575773,0.1374269389683567,0.3558163946164164,0.3140931543346512,0.7050561682297183],[0.5631926750127708,0.5702026523980291,0.4600844739461223,0.5072407228947343,0.0224657699102308,0.45600994420105284,0.5680356432470944,0.6550202897058803,0.7258877804797467,0.7089085106078032,0.6494320879810102,0.607329297873595,0.8482048107085525,0.6678114094104508,0.8437165807228871,0.627076366458877,0.7298517507386978,0.4448246589254272,0.5959847205785219,0.5776239126872366,0.49873298761460527,0.6225434849289035,0.7963151319806603,0.7418172248632361,0.6446573776656438,0.3771276122262698,0.843450278190715,0.6953116079700853,0.7656781915469822,0.12134860164585698,0.25403549597227815,0.2900846792582381,0.7228651766011427,0.6336120501484267,0.033592125735748296,0.7874479623474031,0.412876418399129,0.5958125146272389,0.7444585961705068,0.41922071621977774,0.65009756067257,0.9526862897150634,0.23693276051245787,0.6441838191727587,0.6549401561333155,0,0.7723014624735114,0.3670564407951633,0.9024894729755675,0.5820147840013299,0.5205399966444739,0.4084165889062727,0.8104932533160795,0.9120595557584716,0.9076211583230572,0.8733403279561258,0.854022269509746,0.7713352678911775,0.8917334614041653,0.27308042180614456,0.5756479514598011,0.686907095920815,0.8834225640190595,0.5589005477826844,0.8089127243400981,0.38506131472907895,0.6371399240223997,0.9064918730722986,0.90288718814765,0.7689924642748516,0.825575858158087,0.9141505759388261,0.6976952155748655,0.7702102564244236,0.7779357449107287,0.18627970294955337,0.5751579161945328,0.8288924459828488,0.372277846717937,0.7066185542454231,0.6691199087574006,0.7354559345696536,0.14552105781041627,0.060372626677607975,0.38770306036987534,0.5783248162136101,0.5091342080060697,0.7847967271214237,0.6779809360154946],[0.5797209160830012,0.4253676098595472,0.7988658829281444,0.4598143906394784,0.7540104733641632,0.538449631282962,0.7965503563666223,0.10501482596606208,0.2629613595842644,0.6666780206234372,0.11344268003810498,0.7889413107872176,0.4368173550644499,0.33071043016103835,0.320723198476264,0.34958960638377035,0.0748446779498635,0.8338786462389719,0.3177221487687645,0.1815317038908162,0.5228743030269611,0.14392157482261514,0.34942406495743805,0.4055911072344758,0.5802071880222002,0.5622531816704349,0.23764684549883985,0.7123873307453374,0.20758082562980584,0.7795528153077371,0.6541677650427886,0.8541886208727448,0.11118139825086099,0.7961949623286834,0.7620100797339568,0.11618673588266384,0.4438985356258314,0.40107210495902196,0.02587328752940402,0.5719010798038467,0.41701607124145523,0.3178837250641177,0.838371191876856,0.7781605450209033,0.5014930696414179,0.7723014624735114,0,0.5562970081621612,0.4223140793239563,0.5311026331457973,0.3247868582189415,0.8602922773831277,0.024503842834034815,0.3706429278271176,0.3245873784476276,0.6100105062400714,0.08421791218025433,0.579057175378864,0.10552865501467673,0.8308341936257135,0.763162447762739,0.4279293157340476,0.5194679740804636,0.3151552252703696,0.47683582357222243,0.4118930209422915,0.6339798000999298,0.17577096879403295,0.13754251931363992,0.6385078412629137,0.6202103431308089,0.2362089846460992,0.24388816110884284,0.5244873634263579,0.2845288307275143,0.8078325009616676,0.4219948777942514,0.1325424967471335,0.8193935110661665,0.055108421521124724,0.38203332451592276,0.21885407219311562,0.8174829382082939,0.7982182548138113,0.6146120174980569,0.3748291954695595,0.8005317259225777,0.21664802311473388,0.29817091155250164],[0.6870580949276973,0.20384576917294786,0.7237332192533007,0.5684095816972139,0.3321349868132617,0.07516747853612916,0.8004874013898491,0.44478888993319754,0.6509059438462649,0.8400176183340635,0.46772159711615624,0.8250691391074417,0.8291468031493665,0.3227339479020333,0.7700107365665835,0.27961475365975197,0.4827097000375802,0.7292573254585843,0.2676941332269128,0.38297494736608,0.6012427424081465,0.45489129063603817,0.7496079183859669,0.7359943937595993,0.7501260246390256,0,0.7294644718785203,0.851998294911874,0.4576812100490219,0.46701247424702896,0.11644076835592758,0.6265372914065966,0.56896534788916,0.8471421177026747,0.3921075149704814,0.5143636321714863,0.0986953048002532,0.23443161020939357,0.5450772669002074,0.0461886349315048,0.28175708056961135,0.838563695447041,0.5807707837579045,0.8463451901921071,0.717358231401685,0.3670564407951633,0.5562970081621612,0,0.8591117992172637,0.6753117738737925,0.2217714785718984,0.7149984006892569,0.5885572085638217,0.8402609788865814,0.8147086610808909,0.9285615146919008,0.6074859900764346,0.8428232636079999,0.6662306500725386,0.6035443559368069,0.7901880706926506,0.7042809355828187,0.892773753972441,0.24515258256615452,0.8205885521680998,0.15446895603040794,0.7716970338919521,0.7350339441836611,0.7071281040463259,0.8694703893593859,0.9005264151617841,0.7733595722582552,0.38131785150277725,0.8157031293424719,0.7039198643771217,0.5293803642858982,0.6066245747632929,0.6677857353214411,0.6699917839271649,0.4884038674631319,0.6655032962587117,0.4248468675157684,0.5045639870141249,0.43345819359579674,0.054091122985692935,0.5805164267003178,0.7599917805937911,0.6760858633345009,0.3432910389952697],[0.4114155791553944,0.8081848602767815,0.6767561447172566,0.3910426321605598,0.9013658081576305,0.8785216411492898,0.6119326057900553,0.4606224506004521,0.1949862187478515,0.3883154077383568,0.4156304331508406,0.58075376868883,0.05669015804738739,0.744867776797517,0.08853569970826877,0.7515964346803699,0.5018924479344805,0.7225826568089389,0.7075406400261738,0.4857860414617236,0.42422253294257206,0.4128020853157068,0.0969828318077306,0.15291099532490254,0.35122591544472354,0.8699012192989011,0.17311879844594075,0.44521793394003,0.6426873786718079,0.8423625223621103,0.9093431546066947,0.8301437014053556,0.32007209323109415,0.5733743858041181,0.871003336524547,0.5521308845990496,0.7560650510286275,0.7927117482185116,0.3967424871490914,0.8972580601074233,0.8241934721889128,0.15778783506272798,0.8416426568671285,0.5473373056691221,0.2835385355597081,0.9024894729755675,0.4223140793239563,0.8591117992172637,0,0.3628788996924379,0.6765347702994302,0.7718226903094799,0.4268641093491455,0.05352203216539381,0.10460954097155524,0.22111737546252272,0.4826133261170387,0.255428971987059,0.42941778569669353,0.8140483217014971,0.5719346900467812,0.21523116536824446,0.1107193945452872,0.6873798835109097,0.12779272595238877,0.6906991444111675,0.4044507351630861,0.2948162383466497,0.3548417683345744,0.3189755998633699,0.26198385549150294,0.21975804499975113,0.666629398898809,0.20376036522051164,0.14452499846763178,0.8364357193472076,0.3191143985529239,0.2834944050539145,0.7476727433667278,0.45030313917033,0.22080070821348027,0.6499327998629463,0.8679171005983164,0.8918889625196291,0.9266839818348733,0.31021946298905473,0.6503232166384475,0.19630148896444247,0.7154574796440769],[0.03962316783408444,0.7228577530255403,0.30373611493562136,0.09453996932038208,0.5909491437389348,0.7290983391387176,0.26191347635495144,0.4787023884609742,0.28928845755962473,0.15392409259528964,0.4330001170000791,0.2464885824193671,0.29462485925985815,0.719879318479546,0.35400431969746515,0.7049709601874065,0.5643983525360544,0.34856504864778715