"trial_id","rt","stimulus","response","trial_type","trial_index","plugin_version","time_elapsed","language","participant_number","success","raw_payload","placements","dissimilarity_vector","n_words","trial_category","distance_matrix","value"
"consent_form","20805","
    <div style=""max-width:800px; margin:0 auto; text-align:left; font-size: 16px; padding: 10px 0;"">
      <h1>Informed Consent Form</h1>
      <p>You are being invited to participate in a research study titled <strong>""Reproducibility of Psychological Science and Instruction.""</strong> This study is being done by Dr. Bria Long from UC San Diego and associated graduate students in the Experimental Methods course. You were selected to participate in this study because you are an adult in the U.S. and have been a represented population in previous psychology studies.</p>
      
      <p>The purpose of this study is to better understand how well previously published studies in the psychological field replicate online and with different populations. Your participation in this research should last approximately <strong>5-30 minutes</strong>. If you agree to take part in this study, you may be asked to view a set of stimuli, including pictures, sounds, written text, or videos and then giving some responses via key-presses, verbally, or with paper-and-pencil. We may also observe your choices or preferences among an array of stimuli. These stimuli will be taken directly from or closely adapted from studies that already exist in the published psychological literature. Stimuli will include, e.g., pictures of objects and human faces, audio and video clips, short text passages, etc. None of the stimuli will be disturbing, threatening, or offensive. The online and in-person experiments described in this protocol will take no more than 30 minutes. An example game you might play would be to click on an image on the screen that matches a word you hear being said out loud. Your total expected time commitment for this study is between 5-30 minutes, and is specified in the study description.</p>
      
      <p>Your participation in this study is completely voluntary and you can withdraw at any time. Choosing not to participate or withdrawing will result in no penalty or loss of benefits to which you are entitled. You are free to skip any question that you choose.</p>
      
      <p>We will not be asking for any personally identifying information, and we will handle responses as confidentially as possible. Your SONA or Prolific IDs will never be tied to your responses on this survey. However, we cannot guarantee the confidentiality of information transmitted over the Internet. To minimize this risk, data containing anything that might be personally identifying (e.g. Prolific IDs or IP addresses) will be encrypted on transfer and storage and will only be accessible to qualified lab personnel. We will be keeping data collected as part of this experiment indefinitely. This anonymized data (containing neither Prolific IDs nor IP addresses) may be shared with the scientific community or with other participants to be used as stimuli in future studies.</p>
      
      <p>If you have questions about this project or if you have a research-related problem, you may contact the researcher(s), <strong>Dr. Bria Long, <a href=""mailto:brlong@ucsd.edu"">brlong@ucsd.edu</a></strong>. If you have any questions concerning your rights as a research subject, you may contact the UC San Diego Office of IRB Administration at <a href=""mailto:irb@ucsd.edu"">irb@ucsd.edu</a> or 858-246-4777.</p>
      
      <h3 style=""margin-top: 25px;"">Consent Statement</h3>
      <p style=""font-weight: bold;"">By participating in this research you are indicating that you are at least 18 years old, have read this consent form, and agree to participate in this research study. Please keep this consent form for your records.</p>
    </div>
  ","0","html-button-response","0","2.1.0","20808","en","rotd3lab9j_84fbgk","","","","","","","",""
"","33422","
    <div style=""display:flex; align-items:center; justify-content:center; height:100vh; font-family:sans-serif;"">
      <div style=""max-width:900px; margin:0 auto; text-align:center;"">
        <h1 style= ""font-size: 24px;"">Welcome! Thank you for participating in the study.</h1>
        <p style=""font-size:18px; line-height:1.6;"">
          In this task, you will be presented with <strong>90 words</strong> arranged <strong>outside a circle</strong>.<br>
          Your job is to <strong>drag these words into the circle</strong> and <strong>rearrange them</strong> based on their <strong>meaning similarity</strong>.<br><br>
          Words that are <strong>similar in meaning</strong> should be placed <strong>closer together</strong>.<br>
          Words that are <strong>different in meaning</strong> should be placed <strong>farther apart</strong>.<br><br>
          You can place the words <strong>anywhere inside the circle</strong>. There is no single correct answer — 
          we are interested in <strong>your personal judgment</strong> of how these words relate to each other.<br><br>
          <strong>You must move all words into the circle before you can finish.</strong><br>
          After the initial arrangement, you will arrange words from specific categories.
        </p>
        <p style=""font-size:16px; margin-top:30px;""><em>Press any key to continue.</em></p>
      </div>
    </div>
  "," ","html-keyboard-response","1","2.1.0","54232","en","rotd3lab9j_84fbgk","","","","","","","",""
"","4073","<p style='font-size:20px;'>Which is your first language or primary language of use?</p>","1","html-button-response","2","2.1.0","58307","en","rotd3lab9j_84fbgk","","","","","","","",""
"","7682","","","fullscreen","3","2.1.0","66992","en","rotd3lab9j_84fbgk","true","{""placements"":[{""word"":""proud"",""x"":510.1,""y"":463.7,""cx"":533,""cy"":481.1,""angle_rad"":0.622,""angle_deg"":35.6},{""word"":""refrigerator"",""x"":554.8,""y"":343.7,""cx"":594,""cy"":361.1,""angle_rad"":0.045,""angle_deg"":2.6},{""word"":""rabbit"",""x"":465.5,""y"":93.7,""cx"":488,""cy"":111.1,""angle_rad"":-1.047,""angle_deg"":300},{""word"":""agreement"",""x"":475.5,""y"":447.7,""cx"":514,""cy"":465.1,""angle_rad"":0.612,""angle_deg"":35.1},{""word"":""lips"",""x"":206.5,""y"":118.7,""cx"":222,""cy"":136.1,""angle_rad"":-2.11,""angle_deg"":239.1},{""word"":""scissors"",""x"":578.7,""y"":331.7,""cx"":609,""cy"":349.1,""angle_rad"":-0.003,""angle_deg"":359.8},{""word"":""giraffe"",""x"":426.7,""y"":64.7,""cx"":451,""cy"":82.1,""angle_rad"":-1.21,""angle_deg"":290.7},{""word"":""system"",""x"":112.8,""y"":486.7,""cx"":140,""cy"":504.1,""angle_rad"":2.509,""angle_deg"":143.7},{""word"":""fault"",""x"":66.8,""y"":305.7,""cx"":85,""cy"":323.1,""angle_rad"":-3.04,""angle_deg"":185.8},{""word"":""friendship"",""x"":487.7,""y"":439.7,""cx"":523,""cy"":457.1,""angle_rad"":0.554,""angle_deg"":31.8},{""word"":""method"",""x"":155.7,""y"":478.7,""cx"":184,""cy"":496.1,""angle_rad"":2.42,""angle_deg"":138.6},{""word"":""ant"",""x"":440.3,""y"":92.7,""cx"":455,""cy"":110.1,""angle_rad"":-1.158,""angle_deg"":293.6},{""word"":""depressed"",""x"":438.3,""y"":417.7,""cx"":476,""cy"":435.1,""angle_rad"":0.594,""angle_deg"":34},{""word"":""sofa"",""x"":573.8,""y"":347.7,""cx"":592,""cy"":365.1,""angle_rad"":0.062,""angle_deg"":3.6},{""word"":""violence"",""x"":275.3,""y"":400.7,""cx"":306,""cy"":418.1,""angle_rad"":2.144,""angle_deg"":122.9},{""word"":""chopsticks"",""x"":527.3,""y"":324.7,""cx"":565,""cy"":342.1,""angle_rad"":-0.037,""angle_deg"":357.9},{""word"":""concept"",""x"":351.5,""y"":198.7,""cx"":381,""cy"":216.1,""angle_rad"":-1.343,""angle_deg"":283},{""word"":""sparrow"",""x"":552.1,""y"":284.7,""cx"":582,""cy"":302.1,""angle_rad"":-0.204,""angle_deg"":348.3},{""word"":""chair"",""x"":572.8,""y"":293.7,""cx"":593,""cy"":311.1,""angle_rad"":-0.159,""angle_deg"":350.9},{""word"":""business"",""x"":80.4,""y"":331.7,""cx"":113,""cy"":349.1,""angle_rad"":-3.138,""angle_deg"":180.2},{""word"":""magic power"",""x"":270.3,""y"":566.7,""cx"":315,""cy"":584.1,""angle_rad"":1.719,""angle_deg"":98.5},{""word"":""result"",""x"":160.9,""y"":499.7,""cx"":183,""cy"":517.1,""angle_rad"":2.356,""angle_deg"":135},{""word"":""hostility"",""x"":479.7,""y"":431.7,""cx"":508,""cy"":449.1,""angle_rad"":0.56,""angle_deg"":32.1},{""word"":""dispute"",""x"":89.4,""y"":304.7,""cx"":117,""cy"":322.1,""angle_rad"":-3.022,""angle_deg"":186.8},{""word"":""relationship"",""x"":246.2,""y"":306.7,""cx"":287,""cy"":324.1,""angle_rad"":-2.752,""angle_deg"":202.3},{""word"":""pencil"",""x"":597.7,""y"":299.7,""cx"":621,""cy"":317.1,""angle_rad"":-0.121,""angle_deg"":353.1},{""word"":""anger"",""x"":483.1,""y"":471.7,""cx"":506,""cy"":489.1,""angle_rad"":0.728,""angle_deg"":41.7},{""word"":""team"",""x"":260.4,""y"":329.7,""cx"":281,""cy"":347.1,""angle_rad"":-3.1,""angle_deg"":182.4},{""word"":""washing machine"",""x"":548.9,""y"":311.7,""cx"":608,""cy"":329.1,""angle_rad"":-0.081,""angle_deg"":355.4},{""word"":""thigh"",""x"":201.8,""y"":148.7,""cx"":222,""cy"":166.1,""angle_rad"":-2.179,""angle_deg"":235.2},{""word"":""charity"",""x"":264.4,""y"":319.7,""cx"":290,""cy"":337.1,""angle_rad"":-2.93,""angle_deg"":192.1},{""word"":""finger"",""x"":195.5,""y"":145.7,""cx"":218,""cy"":163.1,""angle_rad"":-2.186,""angle_deg"":234.8},{""word"":""characteristic"",""x"":337.8,""y"":195.7,""cx"":384,""cy"":213.1,""angle_rad"":-1.327,""angle_deg"":284},{""word"":""cat"",""x"":408.7,""y"":79.7,""cx"":423,""cy"":97.1,""angle_rad"":-1.29,""angle_deg"":286.1},{""word"":""eye"",""x"":221.7,""y"":108.7,""cx"":238,""cy"":126.1,""angle_rad"":-2.035,""angle_deg"":243.4},{""word"":""bed"",""x"":545.3,""y"":336.7,""cx"":562,""cy"":354.1,""angle_rad"":0.019,""angle_deg"":1.1},{""word"":""computer mouse"",""x"":547.9,""y"":319.7,""cx"":605,""cy"":337.1,""angle_rad"":-0.051,""angle_deg"":357.1},{""word"":""microwave"",""x"":563.6,""y"":303.7,""cx"":602,""cy"":321.1,""angle_rad"":-0.114,""angle_deg"":353.5},{""word"":""reason"",""x"":334.6,""y"":180.7,""cx"":361,""cy"":198.1,""angle_rad"":-1.498,""angle_deg"":274.1},{""word"":""hammer"",""x"":514.3,""y"":301.7,""cx"":545,""cy"":319.1,""angle_rad"":-0.157,""angle_deg"":351},{""word"":""spoon"",""x"":536.9,""y"":319.7,""cx"":561,""cy"":337.1,""angle_rad"":-0.061,""angle_deg"":356.5},{""word"":""fate"",""x"":327.3,""y"":160.7,""cx"":344,""cy"":178.1,""angle_rad"":-1.606,""angle_deg"":268},{""word"":""arm"",""x"":226.9,""y"":129.7,""cx"":244,""cy"":147.1,""angle_rad"":-2.052,""angle_deg"":242.4},{""word"":""rat"",""x"":461.8,""y"":87.7,""cx"":475,""cy"":105.1,""angle_rad"":-1.099,""angle_deg"":297},{""word"":""excited"",""x"":495.8,""y"":447.7,""cx"":523,""cy"":465.1,""angle_rad"":0.587,""angle_deg"":33.6},{""word"":""ear"",""x"":182.9,""y"":125.7,""cx"":198,""cy"":143.1,""angle_rad"":-2.204,""angle_deg"":233.7},{""word"":""society"",""x"":283.2,""y"":329.7,""cx"":310,""cy"":347.1,""angle_rad"":-3.069,""angle_deg"":184.1},{""word"":""toothbrush"",""x"":558.9,""y"":316.7,""cx"":597,""cy"":334.1,""angle_rad"":-0.064,""angle_deg"":356.3},{""word"":""process"",""x"":124.5,""y"":498.7,""cx"":154,""cy"":516.1,""angle_rad"":2.439,""angle_deg"":139.7},{""word"":""splendor"",""x"":455.2,""y"":443.7,""cx"":487,""cy"":461.1,""angle_rad"":0.681,""angle_deg"":39},{""word"":""air conditioner"",""x"":523,""y"":299.7,""cx"":572,""cy"":317.1,""angle_rad"":-0.147,""angle_deg"":351.6},{""word"":""tortoise"",""x"":426.1,""y"":99.7,""cx"":454,""cy"":117.1,""angle_rad"":-1.151,""angle_deg"":294.1},{""word"":""status"",""x"":134.3,""y"":469.7,""cx"":158,""cy"":487.1,""angle_rad"":2.521,""angle_deg"":144.5},{""word"":""trauma"",""x"":295.2,""y"":417.7,""cx"":322,""cy"":435.1,""angle_rad"":1.889,""angle_deg"":108.2},{""word"":""death"",""x"":296.5,""y"":432.7,""cx"":319,""cy"":450.1,""angle_rad"":1.871,""angle_deg"":107.2},{""word"":""happy"",""x"":461.9,""y"":431.7,""cx"":486,""cy"":449.1,""angle_rad"":0.63,""angle_deg"":36.1},{""word"":""identity"",""x"":124.8,""y"":307.7,""cx"":152,""cy"":325.1,""angle_rad"":-3.016,""angle_deg"":187.2},{""word"":""marriage"",""x"":357.4,""y"":579.7,""cx"":390,""cy"":597.1,""angle_rad"":1.41,""angle_deg"":80.8},{""word"":""error"",""x"":114.2,""y"":480.7,""cx"":134,""cy"":498.1,""angle_rad"":2.541,""angle_deg"":145.6},{""word"":""ankle"",""x"":192.3,""y"":129.7,""cx"":214,""cy"":147.1,""angle_rad"":-2.161,""angle_deg"":236.2},{""word"":""tiger"",""x"":463.4,""y"":84.7,""cx"":482,""cy"":102.1,""angle_rad"":-1.081,""angle_deg"":298},{""word"":""apathy"",""x"":443,""y"":425.7,""cx"":469,""cy"":443.1,""angle_rad"":0.664,""angle_deg"":38},{""word"":""disease"",""x"":266.9,""y"":414.7,""cx"":296,""cy"":432.1,""angle_rad"":2.153,""angle_deg"":123.3},{""word"":""broom"",""x"":556.2,""y"":308.7,""cx"":581,""cy"":326.1,""angle_rad"":-0.103,""angle_deg"":354.1},{""word"":""sad"",""x"":483.7,""y"":425.7,""cx"":500,""cy"":443.1,""angle_rad"":0.555,""angle_deg"":31.8},{""word"":""key"",""x"":583.1,""y"":298.7,""cx"":599,""cy"":316.1,""angle_rad"":-0.135,""angle_deg"":352.2},{""word"":""heaven"",""x"":317,""y"":557.7,""cx"":345,""cy"":575.1,""angle_rad"":1.593,""angle_deg"":91.3},{""word"":""obligation"",""x"":461,""y"":438.7,""cx"":496,""cy"":456.1,""angle_rad"":0.628,""angle_deg"":36},{""word"":""data"",""x"":110.4,""y"":464.7,""cx"":129,""cy"":482.1,""angle_rad"":2.603,""angle_deg"":149.1},{""word"":""loving heart"",""x"":469.8,""y"":435.7,""cx"":511,""cy"":453.1,""angle_rad"":0.57,""angle_deg"":32.6},{""word"":""content"",""x"":86,""y"":464.7,""cx"":114,""cy"":482.1,""angle_rad"":2.631,""angle_deg"":150.8},{""word"":""phenomenon"",""x"":320.1,""y"":190.7,""cx"":366,""cy"":208.1,""angle_rad"":-1.458,""angle_deg"":276.4},{""word"":""cabinet"",""x"":547.4,""y"":281.7,""cx"":575,""cy"":299.1,""angle_rad"":-0.222,""angle_deg"":347.3},{""word"":""miracle"",""x"":308.4,""y"":596.7,""cx"":336,""cy"":614.1,""angle_rad"":1.624,""angle_deg"":93},{""word"":""fear"",""x"":498.9,""y"":429.7,""cx"":516,""cy"":447.1,""angle_rad"":0.529,""angle_deg"":30.3},{""word"":""knee"",""x"":164.8,""y"":119.7,""cx"":185,""cy"":137.1,""angle_rad"":-2.23,""angle_deg"":232.2},{""word"":""comfortable"",""x"":489.4,""y"":454.7,""cx"":531,""cy"":472.1,""angle_rad"":0.593,""angle_deg"":34},{""word"":""debt"",""x"":73.4,""y"":302.7,""cx"":92,""cy"":320.1,""angle_rad"":-3.026,""angle_deg"":186.6},{""word"":""elephant"",""x"":417.1,""y"":66.7,""cx"":449,""cy"":84.1,""angle_rad"":-1.214,""angle_deg"":290.4},{""word"":""effect"",""x"":315,""y"":201.7,""cx"":337,""cy"":219.1,""angle_rad"":-1.67,""angle_deg"":264.3},{""word"":""discipline"",""x"":433.2,""y"":456.7,""cx"":467,""cy"":474.1,""angle_rad"":0.815,""angle_deg"":46.7},{""word"":""television"",""x"":534.8,""y"":303.7,""cx"":569,""cy"":321.1,""angle_rad"":-0.131,""angle_deg"":352.5},{""word"":""shoulder"",""x"":216.2,""y"":102.7,""cx"":248,""cy"":120.1,""angle_rad"":-1.988,""angle_deg"":246.1},{""word"":""nose"",""x"":166.8,""y"":123.7,""cx"":187,""cy"":141.1,""angle_rad"":-2.233,""angle_deg"":232},{""word"":""ax"",""x"":585.6,""y"":277.7,""cx"":598,""cy"":295.1,""angle_rad"":-0.218,""angle_deg"":347.5},{""word"":""scenery"",""x"":334.5,""y"":585.7,""cx"":364,""cy"":603.1,""angle_rad"":1.516,""angle_deg"":86.8},{""word"":""panda"",""x"":417.5,""y"":108.7,""cx"":442,""cy"":126.1,""angle_rad"":-1.181,""angle_deg"":292.3},{""word"":""fraud"",""x"":77.1,""y"":293.7,""cx"":98,""cy"":311.1,""angle_rad"":-2.988,""angle_deg"":188.8},{""word"":""table"",""x"":528.8,""y"":301.7,""cx"":549,""cy"":319.1,""angle_rad"":-0.154,""angle_deg"":351.2}],""n_words"":89,""words"":[""proud"",""refrigerator"",""rabbit"",""agreement"",""lips"",""scissors"",""giraffe"",""system"",""fault"",""friendship"",""method"",""ant"",""depressed"",""sofa"",""violence"",""chopsticks"",""concept"",""sparrow"",""chair"",""business"",""magic power"",""result"",""hostility"",""dispute"",""relationship"",""pencil"",""anger"",""team"",""washing machine"",""thigh"",""charity"",""finger"",""characteristic"",""cat"",""eye"",""bed"",""computer mouse"",""microwave"",""reason"",""hammer"",""spoon"",""fate"",""arm"",""rat"",""excited"",""ear"",""society"",""toothbrush"",""process"",""splendor"",""air conditioner"",""tortoise"",""status"",""trauma"",""death"",""happy"",""identity"",""marriage"",""error"",""ankle"",""tiger"",""apathy"",""disease"",""broom"",""sad"",""key"",""heaven"",""obligation"",""data"",""loving heart"",""content"",""phenomenon"",""cabinet"",""miracle"",""fear"",""knee"",""comfortable"",""debt"",""elephant"",""effect"",""discipline"",""television"",""shoulder"",""nose"",""ax"",""scenery"",""panda"",""fraud"",""table""],""distance_matrix"":[[0,0.24339015998129315,0.6831503229063873,0.04065137014525413,0.8526150262622024,0.2760818180371144,0.7470747796624906,0.7218347005808881,0.8721189901916382,0.04279468093336087,0.639925937327908,0.6949413511731497,0.1300517854308259,0.2351309337938184,0.42986011904494326,0.2582050096765123,0.55898863265522,0.3375270734755303,0.32772394112619047,0.8078652285504653,0.440069059797032,0.6445880738558817,0.0697734108726918,0.8172767449443376,0.5337466117630923,0.33851086361529137,0.04678437352289351,0.5218926299393629,0.3078124657762272,0.8123039926465699,0.5164451351721114,0.8214380844229056,0.5610885286458915,0.7324950826715159,0.8472383244486504,0.2353649729850068,0.2921152192104928,0.316580936611656,0.6063997539811499,0.29478752050270224,0.2657052361068244,0.6543152519735457,0.8104891533548121,0.6974093186448311,0.029622796531939038,0.8736746582786682,0.4752620183540182,0.29087947481472876,0.697715082438543,0.08741437837019933,0.30610802241481133,0.6826843947770381,0.6874379142346174,0.3936170897518796,0.3941298816181248,0.09978785235780033,0.7551293265744855,0.3348445891735195,0.732342488984666,0.847772321392118,0.7010456009889312,0.1322403455238049,0.4417396136040534,0.29445194054401963,0.08772681801246197,0.3229828170869238,0.3829687816970203,0.07724645087179942,0.7409105336435158,0.060541148206520956,0.7686133711413826,0.5858238403979434,0.33973912778625814,0.4337624343084362,0.06498131299417387,0.8984936582478026,0.011803507190748373,0.8618220973481066,0.7442129369715581,0.5990697525378977,0.11735279254235248,0.2976615387249087,0.8442240704301656,0.8906772577741106,0.3586642064751512,0.37972615895965206,0.6716100049984847,0.8573316913875797,0.2954235232248275],[0.24339015998129315,0,0.49627989964003083,0.23710250595624835,0.7977022858599563,0.030253334272128906,0.5737901289126918,0.8738609206456025,0.9374447559368249,0.2152964749211877,0.7919809740889043,0.5246742317792229,0.2520142986180364,0.003035702207905087,0.5369897253264254,0.058806731252602995,0.4706576487872118,0.10597206182395799,0.08713781862002148,0.883392977376097,0.6544186766197103,0.806675079022745,0.22202279412541495,0.878668741551292,0.5658656962480201,0.09011798601576429,0.28165276539932294,0.5734218322596831,0.05928437897870865,0.7704778160882424,0.5579690593510659,0.7795945538829014,0.46925792080057094,0.5756927002990664,0.7825898184055515,0.05527332927753597,0.04353482456596406,0.07011374142174633,0.5199412889068262,0.11396682571682314,0.07013637547783319,0.5669725435428401,0.752430731947776,0.5161573647641899,0.22734152060280233,0.8296311341019362,0.5199218038313536,0.044948408224432246,0.8563425220209443,0.2652579348133635,0.08562984992293014,0.514319081431825,0.8329583668691097,0.5153815556549703,0.5285990753348312,0.2520673319164417,0.8137921169364981,0.5709022907797234,0.8812100656064883,0.8002195773274318,0.5159217980559996,0.2708743289439471,0.5605461992843243,0.06373127192650055,0.22515326411176687,0.07839648874978536,0.6011461603457697,0.24685086589267416,0.8821657502430276,0.2236157416003983,0.9090024729429477,0.5018835036638511,0.11453780162318891,0.6621375120760085,0.2092031663854725,0.856009906116199,0.23049541248463212,0.9249877196576871,0.5722092169041241,0.5370526285770478,0.3087318423770815,0.08189256017524374,0.7735234775174458,0.8492346013808796,0.1168927892516046,0.611373547138181,0.5116632395076777,0.9154621100788162,0.1084595636341942],[0.6831503229063873,0.49627989964003083,0,0.6503261991469067,0.4882063346740924,0.4878744170633804,0.08159841322604433,0.964251813628803,0.8357635920445803,0.6370513437200664,0.9007572878690555,0.055750686277558865,0.5935696178307078,0.5016783135284579,0.6539091533850216,0.4444784783406582,0.27164537310975834,0.38793223875265104,0.4119585017662202,0.8150592660555658,0.9249382165791068,0.9326127406165677,0.6201072653338747,0.7830248204501811,0.5356576080224814,0.44763405669783374,0.6936809182164381,0.5745407286181792,0.45435910064520335,0.49643290645095767,0.5496958732394809,0.5025926203131934,0.26381016307689575,0.11757520416567642,0.45732195046681345,0.463911773518341,0.46478343577539244,0.4360795316159003,0.27908497190190407,0.39308651127075717,0.4334009832300217,0.2881018185426788,0.4502888153537347,0.021219316891611877,0.6517528996435217,0.5336168610233063,0.5407104835759571,0.4531924091628776,0.9643010684458138,0.6411803767248795,0.4056437787728973,0.05853982536456134,0.9187165247153602,0.6671251184965095,0.6943492061512535,0.6190263309745093,0.7304949878680702,0.910417258996327,0.9634281837689432,0.5051653513272267,0.014753146657789854,0.6089375061275386,0.6855740084772655,0.4274072399089417,0.6083346285727543,0.425320811989658,0.8914935356820992,0.6321147119699727,0.948232625464207,0.6278295840742052,0.9677006405310002,0.2826320005123177,0.3773619727211308,0.9652364349913279,0.6174726240067129,0.5564316744411035,0.666206258507129,0.8217433601161288,0.08238061033982898,0.3376414970343768,0.6663078517852216,0.4104677999598572,0.43833454499126423,0.5534358004484956,0.3906944165925865,0.931846842644073,0.08413460536842779,0.8042410738180529,0.39510237653734],[0.04065137014525413,0.23710250595624835,0.6503261991469067,0,0.8071958527723949,0.2716884881028389,0.7116297332206515,0.6892477045227224,0.829355309433391,0.017015442313913665,0.6069237479330302,0.659405189501801,0.08419184354100921,0.22900024268034305,0.38860836069587246,0.24069334061486408,0.5161344671163186,0.32096043514641137,0.31443271236319814,0.7657319359856788,0.4230012563460301,0.6135850695840619,0.026335466965798162,0.7740948552098895,0.48830655755052843,0.3320649396514125,0.041498592984896665,0.477132474325244,0.30010664356516625,0.7666339542703444,0.4712521828600341,0.7757606235787665,0.5184648701882925,0.694892633871133,0.8021251036761058,0.2181243634162299,0.2848276020213964,0.3064529399011396,0.5631116531914186,0.2704292285920848,0.24660718471798143,0.6108339599242608,0.7652163390419452,0.6635364653023921,0.011398039031503528,0.8279952848831862,0.43002472015631626,0.28118868883022463,0.6662849946377363,0.04518579031728148,0.2883517219559986,0.64696679020317,0.6535131603917788,0.35367613404645226,0.3559781640279461,0.05433577436435652,0.7115964253929848,0.32925709268993375,0.6992249641420342,0.802182136617808,0.6677868331526572,0.08728542004248475,0.401978838152362,0.2797560208978599,0.04293653764860838,0.31158702572129293,0.36718797817687937,0.03194365390816386,0.7065107185151106,0.017620699939529257,0.7341876804135623,0.5424975580447992,0.3213993324489204,0.4234908361535098,0.028224367961755696,0.8527720698637357,0.0287304190997858,0.8188759263091278,0.7085971348723433,0.5544849615836179,0.08315588494681914,0.27946263159337537,0.7993403750850214,0.8449445342670046,0.3449793696768019,0.37120993247124145,0.6348276434627868,0.8140253029335155,0.27205777018458727],[0.8526150262622024,0.7977022858599563,0.4882063346740924,0.8071958527723949,0,0.8106166788847217,0.42930707357701264,0.6910895305319859,0.42290566330170126,0.8074833951802943,0.6633400738171294,0.4277658169051525,0.7193416570284568,0.7984071583104405,0.5382056105501198,0.7337170057313637,0.32350203295548574,0.726925772827891,0.7523632001990811,0.43667427498848543,0.839809683077604,0.7021072833485354,0.7778215164009263,0.38924873847370073,0.3621531624474781,0.8039502716070218,0.8315185980511691,0.39941175236224163,0.7918098128863943,0.05018212608673907,0.3866635419405721,0.04518579031728148,0.32604472375855326,0.3729185993190652,0.029622796531939038,0.7406979320999336,0.7936158510120798,0.7753346827273274,0.27586954627571464,0.6804022424240175,0.7226411681394779,0.2330714970040415,0.04020306867966636,0.46552670251483697,0.8183231928358747,0.040947819645016315,0.4169972151033387,0.7779608940188354,0.707731726196995,0.7692478300660355,0.7224982260002887,0.42468259498169625,0.6537124807287752,0.5770533132275254,0.6017308897492496,0.7510090436177496,0.3670047542890133,0.9009530397277328,0.6828108213607638,0.01989631678354612,0.47904853307280737,0.7224911953346298,0.5582717958468606,0.7449316946673905,0.7596823794774795,0.7663333986797868,0.8367708611311891,0.7728201732453064,0.6564708880030681,0.7870130492375391,0.6641966320058755,0.2921152192104928,0.7128657867150869,0.9023352747247089,0.7851746628988447,0.0631351081341618,0.8378376165515238,0.41085737179711235,0.42487296994501145,0.25670523692883607,0.7657584809982615,0.7210273374786402,0.051158515561366406,0.060072694481370315,0.7487323854489485,0.8962508306267499,0.40150529548931485,0.39088821018344655,0.6868393491298307],[0.2760818180371144,0.030253334272128906,0.4878744170633804,0.2716884881028389,0.8106166788847217,0,0.5677588632705005,0.9070322944505799,0.9637221662159646,0.24975018717210348,0.8253178377050279,0.5198730879793538,0.28728670036593407,0.037891698335757354,0.5687016191978661,0.07706012416935756,0.48226721052398797,0.09488230256445147,0.0709243291134915,0.9108194864552991,0.6898957202370797,0.84050970931086,0.25727109231453593,0.9047992666340251,0.591255302463078,0.05789464649519374,0.3157743808027235,0.600558051258061,0.0317596559143098,0.7853925612963103,0.5843417374897394,0.7944416332687038,0.48033224215165177,0.5732302253291583,0.7942134015278904,0.08206857257932704,0.018137440210649627,0.04807991661036482,0.5310184336847235,0.1253168539490959,0.08615393744890928,0.5772436625265024,0.7652274069767944,0.5088941734819513,0.26146715020934874,0.8438445276692734,0.5470001661004572,0.030253334272128906,0.8899116784312262,0.3006423895940014,0.08512160058432938,0.5100770645022901,0.8658313363723493,0.5481108471282687,0.5619190930950734,0.28754312490850087,0.8399549811488168,0.6058194923995127,0.9141830882313781,0.8141439524685521,0.5077185291644897,0.30621208537943845,0.5928229391373269,0.06169793759493057,0.26060244349162665,0.05845953546334122,0.6366024371028652,0.2821873072391663,0.9146708091934828,0.2586901160764262,0.9413967468617088,0.5136424263288749,0.10644650744522177,0.6974432989701745,0.2442940142122651,0.8702742532156682,0.2637657853091181,0.9511045314445751,0.5664835276011644,0.5515490671817533,0.34416515256436486,0.08495154755929595,0.7843219085181773,0.8636808533620487,0.0965549346569141,0.6465404132905125,0.5093119749507483,0.9411282677304358,0.11866750900894017],[0.7470747796624906,0.5737901289126918,0.08159841322604433,0.7116297332206515,0.42930707357701264,0.5677588632705005,0,0.9629350787591274,0.8041083292492376,0.6999992486551925,0.9045968443776771,0.04701341307237677,0.6483512464938265,0.5787174958983652,0.6706392069924542,0.5190897660495439,0.27398848829772476,0.4676629474279742,0.4924188790399479,0.7902848557742628,0.955321723776261,0.9383922852517034,0.6807006693815885,0.7543640890628173,0.5346792648381216,0.5304456612311867,0.7532811168274802,0.5762443667816761,0.5353043464099227,0.4452628200920341,0.5517389467374593,0.450356202740808,0.26652233025588906,0.05344139365765782,0.39646331054361605,0.5373418895987373,0.5449456948121348,0.5168928257059934,0.2659317548456398,0.4656534844614463,0.5076753044884889,0.2602686199413928,0.39548135031168985,0.056168801339289684,0.7145145052101218,0.47542171596273597,0.5491608567529204,0.5326538303506557,0.9660304371129114,0.6978873193360355,0.48294193876813496,0.059653451578247904,0.9179741977581849,0.6888866153720835,0.7168211103712504,0.6756496993062394,0.7063573460652531,0.9525586227967691,0.9607129910957641,0.448645971785099,0.06291020188158122,0.6623214834411363,0.7017286387366604,0.5053791604433301,0.6676068909209538,0.5061267883312848,0.9260871091313966,0.6904843016532489,0.943142706033356,0.6888645017704402,0.9607553643294555,0.27548097706827857,0.45636231112804576,1,0.6794862553769262,0.49643290645095767,0.7300497835003718,0.7902677048168825,0,0.3239375413576705,0.7193487182546924,0.48704364391376576,0.37620121250555016,0.49437530849590144,0.47274598700556647,0.9703142239082709,0.07772071750427353,0.7718858333082741,0.4684269005269822],[0.7218347005808881,0.8738609206456025,0.964251813628803,0.6892477045227224,0.6910895305319859,0.9070322944505799,0.9629350787591274,0,0.34415050855975665,0.707430260051719,0.07737043515142764,0.9264093506168807,0.6282712467134318,0.8681386156178394,0.3400553899112217,0.8347815091754279,0.6883335638078943,0.8922976702295433,0.9041712359051949,0.2853504344135887,0.3501471462525556,0.07774127629255997,0.681970019886634,0.3335784478464767,0.4239838310122264,0.9478891329980709,0.671294963565606,0.38450340532366833,0.9175584556014409,0.6371230334644961,0.40935036972307487,0.6408214597802294,0.696138731265361,0.9103017721766486,0.7159702998521997,0.8219227601377465,0.9072715570683082,0.9125251281699844,0.6918948695282429,0.8170963313335236,0.8312433957732794,0.7050187268092525,0.6815132246555223,0.9569644320016711,0.7057819047214863,0.6700434304464048,0.4221521208874007,0.8952968369657174,0.028830726945094167,0.640538936379958,0.8641615957766919,0.9151823601159355,0.04050242467836112,0.3542506514563447,0.3400800856907927,0.6418132738887057,0.3261064968389613,0.48740381762683294,0.010447425127194836,0.6681212458335957,0.9695412073993978,0.6127494318267543,0.3120926408989141,0.8730845668561058,0.669123488854039,0.9108362421000366,0.39544729991539496,0.6582083484920086,0.04020306867966636,0.6864054970246368,0.057678116323386465,0.6825728226102489,0.8829034421849165,0.4098724854126927,0.6971301323280144,0.6776505952603102,0.7193134114353384,0.34597142083210686,0.9577705675353654,0.6346384325046257,0.601236155411119,0.8561544514256222,0.7314864542710479,0.6707830234517161,0.9245475998819743,0.44707634987384964,0.8883365638613728,0.3595629508070375,0.8238216022319369],[0.8721189901916382,0.9374447559368249,0.8357635920445803,0.829355309433391,0.42290566330170126,0.9637221662159646,0.8041083292492376,0.34415050855975665,0,0.8407113384523287,0.3628998029151933,0.7832562908204714,0.745940432677942,0.9343423503049245,0.4390452867144372,0.8819639308102832,0.5760683598925632,0.9134853644676131,0.9332435452776828,0.06534475817825092,0.637263734515063,0.39618724425315416,0.8099202721069785,0.05390469882927979,0.36784683909282595,0.9847559575074586,0.8305641760514112,0.3594647585238429,0.9607483022529194,0.37960652192567695,0.3742647143019161,0.37903440864309634,0.583171917657061,0.7457020021056514,0.45544880213933214,0.8775875743686359,0.9554921566447206,0.9496107180149014,0.5543508762665466,0.8443645987945015,0.8742624146405555,0.5429737495424302,0.4328251557839008,0.8199410143537768,0.8451511284745845,0.38728971313782146,0.41267737352970973,0.9405874745244613,0.3733152774207671,0.7797423072857576,0.8942659940835533,0.7752735029047404,0.3263123239806655,0.47889707746626264,0.4864890153520724,0.7710668141379259,0.11857111166749434,0.7519916679241821,0.33040744170966996,0.39778579635358857,0.8339303894139389,0.7377931668310999,0.43338931855858626,0.9108362421000366,0.7926225015693201,0.9441510168901238,0.6634931111045658,0.7925904374468881,0.29946362432883616,0.8173576071664821,0.2932715829863844,0.5555230356770885,0.9008231706199353,0.7045142914889088,0.8230621759629683,0.38479211479925235,0.8632273381972317,0.008841563966438171,0.7989926663347928,0.49826197410328726,0.7533957783125106,0.8886647826208027,0.4755920016148654,0.38009369945549665,0.9436263256999619,0.7247912862913566,0.747829306804606,0.0274505990826289,0.8517517670726985],[0.04279468093336087,0.2152964749211877,0.6370513437200664,0.017015442313913665,0.8074833951802943,0.24975018717210348,0.6999992486551925,0.707430260051719,0.8407113384523287,0,0.6249918251995288,0.6478265434555069,0.09061753426318724,0.2071653355960258,0.40196627333945545,0.22088672375676152,0.5113860104436145,0.30107699325556453,0.29380816825782813,0.7778193384288018,0.44486892551858814,0.6324116667179902,0.026172929338259925,0.784967495852633,0.4950848405715991,0.3103896978665294,0.06169793759493057,0.48572190422262695,0.27855059611051025,0.7679960369668193,0.47881252349760345,0.7771591336390236,0.5134024289256649,0.6848206105973443,0.8014678779685787,0.1981827179665567,0.26320091403906604,0.2852506402612377,0.5589765416997664,0.25286152367403736,0.22724616940329923,0.6069822513255633,0.7650325880913373,0.6508878941110757,0.009551177743158978,0.8293880045260584,0.43751867050132576,0.2598829165912337,0.6849244060200979,0.06167244848710881,0.2687163109837177,0.635509404955327,0.671153777408519,0.36821237064569684,0.37175772942664137,0.06468919650294545,0.7220387463396357,0.3514118493241425,0.7171847621972176,0.8031468615216725,0.6547701991867784,0.09780400349580218,0.4165486220380064,0.2593677708450079,0.044504549504663364,0.2906028828228242,0.38919253072683113,0.04467573163592802,0.7239029964782616,0.018137440210649627,0.7515523491658072,0.5384252476884388,0.30197766705162377,0.4457206682583816,0.01732010246712592,0.8543984643220093,0.026172929338259925,0.8300191774740401,0.6970815668567288,0.5526384634812661,0.1028610732203925,0.25992794422580645,0.7980951374697265,0.8466419325676006,0.3244759452028818,0.39344601255597816,0.6241252662392469,0.8247159683852198,0.25412717198196527],[0.639925937327908,0.7919809740889043,0.9007572878690555,0.6069237479330302,0.6633400738171294,0.8253178377050279,0.9045968443776771,0.07737043515142764,0.3628998029151933,0.6249918251995288,0,0.8658156729430843,0.5457015415199765,0.7861838256561697,0.2622079241107331,0.7537374117524771,0.6270640239491142,0.812500062967193,0.8238216022319369,0.29627321093642545,0.2862353416462446,0.03360432247973789,0.599422426960728,0.33913049597490513,0.36503858336021927,0.8669368545719459,0.5896061277394953,0.3231334742119803,0.8363960627845488,0.6082679144853383,0.3477008003475777,0.6129784482276962,0.6347850092561282,0.8537593945359712,0.6853542494336079,0.740524148200716,0.8259090114635019,0.8316897893521518,0.6349022464917498,0.7373201840257197,0.7504337514265018,0.6522277784745688,0.6487868736215069,0.894942617875917,0.6234745631869969,0.647230847124375,0.3551604027054748,0.8141106490704931,0.06136581817436015,0.5580962284955615,0.7839394892317924,0.85419409307104,0.045590151097001805,0.27343209935775875,0.25817911224013035,0.5592424828930148,0.31607176850553137,0.41849714519769754,0.08719319677899943,0.6417078340257945,0.9071332410191785,0.5301558597301379,0.23301423514821837,0.7923745054625566,0.5865361215976667,0.8302131315707582,0.32598808831390835,0.5757132504621285,0.09959278426691254,0.6038990274114904,0.12661683191075418,0.6239789167242896,0.8033767900199421,0.350161543159801,0.6145764420392296,0.657802062177313,0.6371681673472499,0.3615538257741961,0.8994914086858462,0.5792079477457206,0.5190149480035056,0.7758261323235778,0.699183806469102,0.650435455298503,0.8447278572827285,0.3815118635340692,0.8278397121306007,0.3715586226829356,0.7439602983054537],[0.6949413511731497,0.5246742317792229,0.055750686277558865,0.659405189501801,0.4277658169051525,0.5198730879793538,0.04701341307237677,0.9264093506168807,0.7832562908204714,0.6478265434555069,0.8658156729430843,0,0.5962579253321046,0.5293907945730968,0.6266754982535396,0.4689702864183153,0.2335290974438696,0.41992760696641757,0.4450659158756298,0.7653513569861984,0.9075742839026429,0.8988578044212472,0.6284677414442242,0.7316438541589319,0.49724476176380633,0.4848213633400836,0.7010456009889312,0.5377817737589174,0.4881683137746751,0.4373491495854483,0.5130636134287971,0.44329369039770483,0.22581856079289472,0.058566566207812,0.39663310322713974,0.4868357314633496,0.49727530809462656,0.4697105917078941,0.2325843317343925,0.4150376796634657,0.4574694106325204,0.23518769148900887,0.3904100142819779,0.032850308274947046,0.6623317025859404,0.47331654401381773,0.5079046861434562,0.4845950989751688,0.9281943071417141,0.6457130220112476,0.43391780564014765,0.00783556884539613,0.88115042135826,0.6433218182972766,0.6710806515647493,0.6234745631869969,0.6809393174972258,0.9021736525960083,0.9248043617295042,0.44508485271473397,0.04678437352289351,0.6103243772339213,0.6580155220946896,0.4566097935193783,0.6153711478472842,0.4589671546200007,0.8772687635476226,0.638261032230067,0.9082914578929433,0.6366369795275412,0.9267827183805197,0.23926752089316522,0.4082464186552237,0.9511883442554385,0.6272824647741875,0.4959158958441994,0.6779152742667034,0.7692896684563,0.04405669320066766,0.2914548799189791,0.6673990104116807,0.43770352841361965,0.37752241591198493,0.49303536700164474,0.4266181123140066,0.9206599988704439,0.032850308274947046,0.751426138686,0.418013877576694],[0.1300517854308259,0.2520142986180364,0.5935696178307078,0.08419184354100921,0.7193416570284568,0.28728670036593407,0.6483512464938265,0.6282712467134318,0.745940432677942,0.09061753426318724,0.5457015415199765,0.5962579253321046,0,0.24499702663898693,0.3103086334709413,0.23251260558457884,0.4356542237127907,0.30887847572360005,0.3096377017338361,0.6837446668977857,0.3999172099188842,0.5566988200454966,0.05928437897870865,0.6898687316438855,0.3995803083409451,0.34004057159559775,0.10886389191541596,0.38988807836005324,0.30743632179150504,0.6780575592672482,0.38305663786975563,0.6871596335105784,0.43859208021369533,0.6266431103286162,0.7151113817306642,0.21296401418291108,0.29397351628308227,0.3085905751385906,0.4812901720648442,0.2440478335405099,0.23436338890643743,0.5283658051618809,0.6777854445517182,0.6042433108583593,0.097754331633023,0.739379821893067,0.34177002027464104,0.2858664689849002,0.6079926421546458,0.04691537646616406,0.2757178253930473,0.5834819724785406,0.589878441771059,0.2791929258414632,0.2860538912540076,0.026550890487301016,0.6267051857264894,0.3335130026629847,0.6370301007775431,0.7138388692662805,0.6098809186939087,0.014408692227400117,0.32725748766471896,0.2742937250690887,0.041498592984896665,0.31085406576401114,0.34887792621893676,0.04833526479839451,0.6414889914659557,0.06746383012343687,0.6689514924756774,0.4606431578310069,0.30544997735954343,0.41446916594407446,0.07190347915543668,0.764022281797531,0.11719965016258617,0.7350912741405966,0.6449396653011809,0.46916086369413956,0.0686968960828002,0.2664909489932612,0.7129394073259452,0.7561603932404156,0.337735992049659,0.367677659568965,0.5689006785842947,0.7294928986721355,0.24790410688020684],[0.2351309337938184,0.003035702207905087,0.5016783135284579,0.22900024268034305,0.7984071583104405,0.037891698335757354,0.5787174958983652,0.8681386156178394,0.9343423503049245,0.2071653355960258,0.7861838256561697,0.5293907945730968,0.24499702663898693,0,0.5319716973186177,0.06028130973186628,0.4718316764342945,0.11258519346736176,0.09452389610864623,0.8799162314866853,0.6469301798164999,0.8006196671891678,0.21417221510749415,0.8756226403099705,0.5631356589090959,0.09834882175329082,0.2734749379424266,0.5701113744346138,0.06753418427059225,0.7706800598474488,0.5549205171951878,0.7798118286763686,0.4705644616999307,0.5799282822519782,0.7836195838954838,0.05378921354053496,0.05179018466612686,0.07811046718897027,0.5212127510707496,0.11623462545614541,0.0719255881401875,0.5684133063477718,0.7531776817950508,0.5213390806642894,0.21916043345387676,0.8299987586332934,0.516651055158373,0.052768908223260365,0.8504233552473057,0.2575308467740946,0.09081307443031915,0.5189336119275619,0.8273810128137616,0.5099148677334006,0.5228429897946403,0.24456043613986023,0.8107462745737277,0.5629015598936318,0.8755819802777239,0.8006683418168775,0.5212743000438449,0.2637657853091181,0.5552766291280147,0.06961406030137567,0.21753562843981597,0.08619125729935741,0.5935382874513512,0.23907212884982987,0.8767526255520027,0.21566738306048447,0.9036365994559766,0.502998823760065,0.12064770910312377,0.6543333524573571,0.20126165672396523,0.8563583576706506,0.22224782785610192,0.9219392829494101,0.5770796729956155,0.5374550367237122,0.30107699325556453,0.08647067202085096,0.7747576537214503,0.8495379305596963,0.12453061572009325,0.603478906012995,0.5159087078944729,0.9125604351005375,0.11106990330545731],[0.42986011904494326,0.5369897253264254,0.6539091533850216,0.38860836069587246,0.5382056105501198,0.5687016191978661,0.6706392069924542,0.3400553899112217,0.4390452867144372,0.40196627333945545,0.2622079241107331,0.6266754982535396,0.3103086334709413,0.5319716973186177,0,0.49328174871614233,0.39272668521862525,0.5477007720626,0.5604648050357158,0.3733152774207671,0.3018055203154972,0.2863815903654735,0.3722098541297722,0.38628038874365295,0.171892114508105,0.6057106319968245,0.3867331659175817,0.1337947762778992,0.5762443667816761,0.48536049569559053,0.14726262206195273,0.492980598962616,0.3998624824787876,0.6257707107589557,0.5484898191777289,0.48212375416977166,0.5668920635635144,0.5700520859877335,0.4135905166603917,0.4725461310803972,0.4889143706922451,0.44354457947135095,0.5082070472784069,0.651724344077368,0.40483772367879994,0.5404261338784853,0.1261113710933464,0.5541557857028728,0.3287876743593025,0.3383619855705489,0.5202626883400323,0.6142461608374276,0.2963580480408105,0.037891698335757354,0.058566566207812,0.3321053879983982,0.32703171486243104,0.35995545591267986,0.34511569988665863,0.5233304355885856,0.6627990612822023,0.2993348575676344,0.026550890487301016,0.5303310332312973,0.3560300978191512,0.5677588632705005,0.2935457043839099,0.35262919386678543,0.3423838430308014,0.37886127639741507,0.3685547318243553,0.3981368813185981,0.538023558221969,0.36097679460215154,0.3862978129326022,0.5598132289492007,0.4221201956005277,0.42947580740228336,0.6657870236470856,0.36673433431126234,0.3095943667146311,0.5124841533989651,0.5554682880244011,0.5515674454526512,0.5799515980994503,0.352843589753299,0.5896835349327657,0.4267721053348357,0.47937945723191133],[0.2582050096765123,0.058806731252602995,0.4444784783406582,0.24069334061486408,0.7337170057313637,0.07706012416935756,0.5190897660495439,0.8347815091754279,0.8819639308102832,0.22088672375676152,0.7537374117524771,0.4689702864183153,0.23251260558457884,0.06028130973186628,0.49328174871614233,0,0.4066387773836629,0.07504573188527469,0.0719255881401875,0.8296576901859013,0.637377865561017,0.7707855574064043,0.21868108527921987,0.8229942258703848,0.5092788284988122,0.10803873567830038,0.28731585083817046,0.5193661749370823,0.07774127629255997,0.7067766455174734,0.5027470830348084,0.7158804335019333,0.4052700325062756,0.517764230826812,0.7185597889993811,0.017620699939529257,0.069225646096345,0.07334932911914577,0.4559446145682477,0.05106769849066827,0.006601969714978023,0.5030390907052203,0.6884343749472421,0.46298021177603255,0.23481852658274416,0.7658049325712262,0.4658164396803372,0.05569472077807372,0.8190580194264875,0.2575568080980724,0.04272359518972649,0.45813608126934363,0.7927272353903042,0.4753081586702203,0.49096024315754344,0.24041578177565343,0.75817590390483,0.5659612500786199,0.8413098938767956,0.7363457165499894,0.46378088445339855,0.25212698131383304,0.5186504639443985,0.03656598794518193,0.21659962844638728,0.07382540257934761,0.5866052854125139,0.24088051586954976,0.840501643145338,0.2227496011692664,0.8669192555308699,0.4378575177592692,0.07631055942820801,0.6514517057211215,0.20877324535507552,0.7921948739281849,0.2429438706167447,0.8692860721147162,0.517212836122674,0.47322743933147193,0.298403878082787,0.034257672348817436,0.709521150464798,0.7854508011908431,0.10083823653897189,0.6031818452844976,0.4538430010706628,0.8591586705617097,0.046521372666139774],[0.55898863265522,0.4706576487872118,0.27164537310975834,0.5161344671163186,0.32350203295548574,0.48226721052398797,0.27398848829772476,0.6883335638078943,0.5760683598925632,0.5113860104436145,0.6270640239491142,0.2335290974438696,0.4356542237127907,0.4718316764342945,0.39272668521862525,0.4066387773836629,0,0.39854679857977576,0.4238248623060289,0.5473336048266966,0.685265338267733,0.6601719859117943,0.4848666036776883,0.5201815454222649,0.25920658198849555,0.47567357545450745,0.5493084990652163,0.2991500101063692,0.4630858333234826,0.30260435463524143,0.2743913304627691,0.3113285277616525,0.002611856281798708,0.22783964501925408,0.3068302692380983,0.41513506195582506,0.46497208294493886,0.44665761804907317,0.044470242317366106,0.3524432801440821,0.3953408737710925,0.09272960380455289,0.2780754180927025,0.2634104992471584,0.5241686944934553,0.3586501459814974,0.26996481685105517,0.4493443430032287,0.6895717879280999,0.4877914027450335,0.39380946392612853,0.2219477333449399,0.6429430379617326,0.4136597364326558,0.4418540679594358,0.46677131043266573,0.46317322624771073,0.6986267308173628,0.6871226851822102,0.32849139735846283,0.27606362959152486,0.4444140030048089,0.4234749236544799,0.41633021496868694,0.46812795254571216,0.43773048041353024,0.6611247616536051,0.48628086828704575,0.6714940868066147,0.4940064998723327,0.6908372116079834,0.026172929338259925,0.38448152467811947,0.734510519164932,0.4889143706922451,0.38505876243015597,0.5427559355039221,0.5620273379322573,0.2690087593323611,0.07622684865460515,0.4970410720827139,0.3924694672847953,0.2977122105582189,0.3789101164699613,0.4212773034475123,0.7102008640073503,0.19557521404194306,0.5461007302564378,0.35872044301768335],[0.3375270734755303,0.10597206182395799,0.38793223875265104,0.32096043514641137,0.726925772827891,0.09488230256445147,0.4676629474279742,0.8922976702295433,0.9134853644676131,0.30107699325556453,0.812500062967193,0.41992760696641757,0.30887847572360005,0.11258519346736176,0.5477007720626,0.07504573188527469,0.39854679857977576,0,0.021025118208722885,0.8652927443209054,0.7119983950910682,0.831846683955416,0.29872387322871713,0.8543607684257931,0.5411133191103623,0.07194769079089272,0.3675724552226674,0.5568596532947002,0.06400279788458199,0.7055084068713181,0.5379199494886812,0.7143817987503864,0.395698353605659,0.4739148976496343,0.7084203134636677,0.09767149190905611,0.07212428462216362,0.04572422484893685,0.4458681401261127,0.06997779402558917,0.07015900273792616,0.4904099974038919,0.6815231582174575,0.40881111960252364,0.3149285065174047,0.7623621452856003,0.5039509539967861,0.06004657069274923,0.8785336679871706,0.3368496997185317,0.028071052805381365,0.41025440594552626,0.849138790845322,0.5341388386813857,0.5521276916027865,0.31903064478837234,0.7900618644781593,0.6448321090049697,0.8978895690286877,0.7322476800374849,0.4077470260115279,0.32849139735846283,0.5749847436383042,0.039139417948219964,0.2960185562702288,0.035449188241693796,0.6624568744162643,0.3205366527223219,0.8950316593159627,0.30294212533718995,0.9208331276902844,0.42983659951676084,0.008841563966438171,0.728563818114299,0.28900743308765275,0.7887848929078423,0.32256685224229753,0.9003487078306861,0.4664062283591413,0.47251757340890466,0.3768980917560108,0.037294227270599806,0.6972636700619139,0.7825573459347664,0.02703033320755562,0.681165459418685,0.4101189259548609,0.8888116787172217,0.0633344054103922],[0.32772394112619047,0.08713781862002148,0.4119585017662202,0.31443271236319814,0.7523632001990811,0.0709243291134915,0.4924188790399479,0.9041712359051949,0.9332435452776828,0.29380816825782813,0.8238216022319369,0.4450659158756298,0.3096377017338361,0.09452389610864623,0.5604648050357158,0.0719255881401875,0.4238248623060289,0.021025118208722885,0,0.8840433539541116,0.7143723187810638,0.8421938530134028,0.2941102869559588,0.8741169669788542,0.560425611035105,0.04766234634682116,0.36068327693167507,0.5748201154680129,0.03804963077261527,0.7304347155487867,0.5564316744411035,0.7393363028076335,0.42109732411027057,0.49953398555198103,0.734097721655854,0.09267735738798066,0.04766234634682116,0.019623264876884348,0.4713702849942382,0.08464843658360675,0.0709243291134915,0.5161344671163186,0.7069490856139915,0.4332259805737311,0.30719622539127267,0.7875273776538458,0.5216499167701539,0.037891698335757354,0.8895915407594374,0.3339959925212629,0.03511234682462212,0.4355420287246676,0.8614266473077564,0.5451812337760604,0.5622077001073561,0.3172797301845922,0.8096524258632624,0.6425087465154051,0.9101378303834747,0.7574584470610003,0.4318312409866803,0.32925709268993375,0.5870690505198022,0.030253334272128906,0.2929914908234367,0.009200735215140145,0.6637378979434648,0.3169675779517579,0.9080617994041449,0.29761648997753554,0.9341045362595959,0.45515254016155127,0.03473000587917712,0.7285591697559127,0.2834129966472555,0.813958685136207,0.3134066969177483,0.9202030780241376,0.49125231316941,0.49717687437927327,0.37527005475379316,0.04279468093336087,0.7230721679263893,0.8076806282167738,0.025735324077848305,0.6801211049077257,0.43580892858676273,0.9089726251669545,0.07737043515142764],[0.8078652285504653,0.883392977376097,0.8150592660555658,0.7657319359856788,0.43667427498848543,0.9108194864552991,0.7902848557742628,0.2853504344135887,0.06534475817825092,0.7778193384288018,0.29627321093642545,0.7653513569861984,0.6837446668977857,0.8799162314866853,0.3733152774207671,0.8296576901859013,0.5473336048266966,0.8652927443209054,0.8840433539541116,0,0.5670917523392474,0.3309050419151106,0.7473014438713779,0.04518579031728148,0.31943012832656703,0.9348413825571136,0.7652716771263156,0.30507096954325286,0.9097185274533928,0.38816207718503953,0.3224211397848758,0.38924873847370073,0.5547652180453254,0.7326060400764202,0.4669158193525284,0.8240684202693584,0.9037022735023533,0.8993707563747323,0.5310184336847235,0.7945418640062859,0.8224669083869658,0.5255746318873765,0.439425162937878,0.8010322502248614,0.7817125913693398,0.4063446741786933,0.35862671061796736,0.8890863287395822,0.3123612571778323,0.7158094784715634,0.8445432370145456,0.756491830976442,0.2628512412324782,0.41217102455857313,0.41849714519769754,0.7079828506445935,0.07934962962384833,0.6814337509866861,0.2726782867697805,0.4118767333972792,0.8148534095701117,0.6747925198513242,0.3658897251575088,0.8601505332147439,0.7302932880278655,0.8944176627041523,0.592942698453152,0.7292096536707234,0.2421798844533643,0.7545077701085545,0.24041578177565343,0.5296969519431829,0.8530085749673946,0.6344251699976379,0.7607518484162406,0.4082752906836147,0.7994929802484619,0.06090320680189589,0.7850969816203558,0.47309553393902704,0.6881269781347659,0.8385311939047804,0.4857288517792758,0.40251039341739425,0.8960389193029337,0.654281635471343,0.7288194324942304,0.07022684380337521,0.8019117224937373],[0.440069059797032,0.6544186766197103,0.9249382165791068,0.4230012563460301,0.839809683077604,0.6898957202370797,0.955321723776261,0.3501471462525556,0.637263734515063,0.44486892551858814,0.2862353416462446,0.9075742839026429,0.3999172099188842,0.6469301798164999,0.3018055203154972,0.637377865561017,0.685265338267733,0.7119983950910682,0.7143723187810638,0.5670917523392474,0,0.26816790691052916,0.42976603330212726,0.6012895836630062,0.4777366940451503,0.7448043701021516,0.38875123780286835,0.4369636330818424,0.7121434294232115,0.7856405903375001,0.4532816878163584,0.7926759389100003,0.6917113635025731,0.9160491233773991,0.8525096517807449,0.618099496456968,0.6983043944778548,0.7137202711770905,0.7127090209132223,0.6428246237036427,0.6386001853691531,0.7465123575064011,0.8124374924411275,0.9274704948000511,0.4373491495854483,0.8374187674060211,0.4325798102335192,0.6907857567179699,0.3175545971298993,0.3853033934071397,0.6792072333877482,0.8946545937483985,0.3356110230913528,0.2702621305555756,0.2423659358985861,0.3971462899071324,0.559958088551601,0.13535628248166742,0.36487272825219064,0.8231301204815868,0.93688012553494,0.38039897851119,0.2776838503441838,0.6791623799578118,0.42436908583318217,0.7159513815511743,0.05262168122567815,0.40420090114515933,0.386554729706209,0.4301696743407301,0.41105816633228365,0.6955548990002233,0.7072555427352851,0.06240773252857261,0.4440231604470906,0.8545274114680866,0.4441370331724235,0.6330131781366433,0.9507941817648276,0.670104041899176,0.3412978662069747,0.6700434304464048,0.8606076297149658,0.8464036593880117,0.7418082785412565,0.09183759002389763,0.8725562540664222,0.6388464893048252,0.6476907307308221],[0.6445880738558817,0.806675079022745,0.9326127406165677,0.6135850695840619,0.7021072833485354,0.84050970931086,0.9383922852517034,0.07774127629255997,0.39618724425315416,0.6324116667179902,0.03360432247973789,0.8988578044212472,0.5566988200454966,0.8006196671891678,0.2863815903654735,0.7707855574064043,0.6601719859117943,0.831846683955416,0.8421938530134028,0.3309050419151106,0.26816790691052916,0,0.608003766664465,0.3749830858814118,0.39967719625571874,0.8840433539541116,0.5935496805062475,0.35717546430401437,0.8530582526297409,0.6470138576807882,0.3815118635340692,0.6517528996435217,0.6678476478166613,0.8881685913557118,0.7240082451741578,0.7567268851889263,0.8420891952952959,0.8490908815481469,0.6694370164257801,0.7568119345598996,0.7680004482443258,0.6878834231136204,0.6873394205686926,0.9274101517482759,0.6300106642938744,0.6860577258769652,0.38668094909442524,0.830743723200471,0.04836709777437704,0.5656685659618608,0.8025981439902893,0.8871008458189306,0.0668985263300904,0.29283131998216466,0.27477532095901147,0.5682943722434879,0.353965881648761,0.4046338816796675,0.09183759002389763,0.680509193681443,0.9394345529916108,0.5403729971769909,0.2559227348332674,0.8100876313254074,0.5959714805037121,0.8480521862351171,0.3125652536972901,0.5837194741052363,0.11362292347097926,0.6119706930666818,0.13766655007755227,0.6580283789319382,0.8231671787792396,0.3293488583715908,0.6232222346317525,0.6965932972625872,0.6428351502916309,0.39554944242533413,0.9333107818557672,0.6142874556172173,0.5252628805751088,0.7943029955862296,0.7377426684657392,0.6892354256632599,0.8639967997587911,0.36487272825219064,0.8609562006030339,0.40634467417869324,0.7633014063750525],[0.0697734108726918,0.22202279412541495,0.6201072653338747,0.026335466965798162,0.7778215164009263,0.25727109231453593,0.6807006693815885,0.681970019886634,0.8099202721069785,0.026172929338259925,0.599422426960728,0.6284677414442242,0.05928437897870865,0.21417221510749415,0.3722098541297722,0.21868108527921987,0.4848666036776883,0.29872387322871713,0.2941102869559588,0.7473014438713779,0.42976603330212726,0.608003766664465,0,0.7540362149140518,0.4636972417569062,0.3156893622696339,0.06874302439221702,0.4543924971880615,0.28326524301115386,0.7378597276148036,0.4474193455663065,0.7470090342666056,0.4871371758728296,0.6635568663053594,0.7722785683204378,0.1965918381755454,0.2684173177359924,0.2880727461870788,0.5319875707147913,0.24440334991418797,0.2236157416003983,0.5797883676526704,0.7355956081201017,0.6330131781366433,0.03528111768470157,0.7992449821573514,0.40612499528034035,0.2633406556842843,0.6601719859117943,0.03944590263236804,0.2657052361068244,0.615991904918897,0.6449763877664438,0.339264190194794,0.3438379567757524,0.03540723577998267,0.6910013517884603,0.34435546880097195,0.6914054127061264,0.773179573201586,0.6374335966123204,0.06765129024824829,0.3875676910330698,0.25893556328893524,0.013244900319848077,0.2924018662757832,0.37527005475379316,0.02043370444101234,0.6973850459777126,0.004010593878125328,0.7249874992574364,0.5113860104436145,0.2981847395823693,0.4349690020443032,0.010005895771820367,0.8241650706494968,0.05484898191777289,0.7991622991359534,0.6776306153226904,0.5240913723629697,0.08346409720751712,0.2566466303785622,0.769228011092279,0.8163805080083394,0.32420167627363095,0.38416192723386694,0.603638586293253,0.793731127681564,0.2465259052439069],[0.8172767449443376,0.878668741551292,0.7830248204501811,0.7740948552098895,0.38924873847370073,0.9047992666340251,0.7543640890628173,0.3335784478464767,0.05390469882927979,0.784967495852633,0.33913049597490513,0.7316438541589319,0.6898687316438855,0.8756226403099705,0.38628038874365295,0.8229942258703848,0.5201815454222649,0.8543607684257931,0.8741169669788542,0.04518579031728148,0.6012895836630062,0.3749830858814118,0.7540362149140518,0,0.3087644334830646,0.925640180726565,0.7766118091293603,0.30116050020623925,0.9016773303244021,0.3420697013139715,0.3154820351722392,0.34266338667056656,0.5273964820884057,0.6962457144714929,0.42018425854377334,0.8187517488386539,0.8964702577101192,0.8905059162621951,0.5002632679576706,0.7852523365434767,0.8152505207315244,0.49125231316941,0.39411706984662,0.7679320706146358,0.7897530040373307,0.3576363586249041,0.3541984605486629,0.8815466917627481,0.359525547339879,0.7247445611448089,0.8351489100489892,0.7232782081209694,0.30877529643333673,0.42709176172320795,0.4364349291635184,0.7155019259521671,0.059653451578247904,0.710429674794476,0.32133666894926854,0.3643054949700599,0.7818621139599786,0.6822082273360884,0.3827974049444098,0.8517517670726985,0.7365848553595313,0.8850323956704875,0.6237755970198164,0.7371984455386997,0.29110401570988226,0.761606349653474,0.2903260319807671,0.500549965764043,0.8417046684522838,0.6688806576821631,0.766989607838153,0.3587954115599377,0.8080162340195199,0.04109533290330095,0.7492095163684156,0.4434115497089096,0.6995033205658475,0.8295596327537899,0.439425162937878,0.35318635641469387,0.8845150109733376,0.6857344624914814,0.6957106351530008,0.03532320063656989,0.7926396019077325],[0.5337466117630923,0.5658656962480201,0.5356576080224814,0.48830655755052843,0.3621531624474781,0.591255302463078,0.5346792648381216,0.4239838310122264,0.36784683909282595,0.4950848405715991,0.36503858336021927,0.49724476176380633,0.3995803083409451,0.5631356589090959,0.171892114508105,0.5092788284988122,0.25920658198849555,0.5411133191103623,0.560425611035105,0.31943012832656703,0.4777366940451503,0.39967719625571874,0.4636972417569062,0.3087644334830646,0,0.6117634162283531,0.5011868650806165,0.03867567911086561,0.5876906749077637,0.31030863347094134,0.019416490318535123,0.31827764762722116,0.2670239385144625,0.48349710314047906,0.3714861941390757,0.505676340012212,0.5825687262837747,0.5765639763993828,0.26464563470609764,0.4713559711427946,0.5013855215117707,0.2842390232602811,0.3311789152572929,0.5278285764237213,0.5025019355257375,0.36728413464121873,0.05484898191777289,0.5676010902240466,0.4261399892273559,0.4424982808272886,0.521290495946181,0.4859788983734444,0.3786836237565694,0.20972745768828224,0.23486825492119404,0.4287926196716862,0.24410940149608296,0.5336611696664766,0.4226944863460023,0.3483815026648868,0.5404886410208126,0.3963783872819678,0.19492868133400235,0.5377660697465847,0.4453877339094145,0.5711863999463352,0.4705537081692136,0.451309788799071,0.40744957996059866,0.4721711757109594,0.4274821321774295,0.2539758836790336,0.5286725503020211,0.5379576276782968,0.4748536608923081,0.38817508289212577,0.5218279173564043,0.35498999936310033,0.5295502734079809,0.20956077654971467,0.4275097207985295,0.5156206411065455,0.37835919558965114,0.37992104338794774,0.5716418661312529,0.5293142278318147,0.45917652676010146,0.3446578097176777,0.47874205057252245],[0.33851086361529137,0.09011798601576429,0.44763405669783374,0.3320649396514125,0.8039502716070218,0.05789464649519374,0.5304456612311867,0.9478891329980709,0.9847559575074586,0.3103896978665294,0.8669368545719459,0.4848213633400836,0.34004057159559775,0.09834882175329082,0.6057106319968245,0.10803873567830038,0.47567357545450745,0.07194769079089272,0.04766234634682116,0.9348413825571136,0.7448043701021516,0.8840433539541116,0.3156893622696339,0.925640180726565,0.6117634162283531,0,0.3768980917560108,0.6251487614880007,0.0274505990826289,0.7826785696639844,0.6072022854592729,0.7915530021419946,0.47277096312073,0.5414097911270014,0.7852027125954472,0.12339529302721952,0.04207901655070435,0.03063584718176762,0.5228655965649176,0.13518633855194517,0.11158205130763779,0.5671543270185877,0.7585578254077561,0.47017718135040837,0.3226032702369285,0.8395109363347285,0.5718162676660479,0.04909410748566101,0.9323017268735456,0.3580591138383385,0.0852724905652855,0.47598555638868084,0.9056908879660396,0.5884351904225377,0.6042209243525648,0.34348111038674756,0.8610802343628328,0.6651665837079974,0.9543091551386241,0.8093844915506979,0.4676088473862313,0.35940863677567086,0.6314748527678623,0.07049760025852911,0.3174066209502805,0.035449188241693796,0.692537982650731,0.34002575264396273,0.9531691815401016,0.31782395100345046,0.9794738172875612,0.5069465865885203,0.08600450537833698,0.7549880063934054,0.30340112128556057,0.8659311841134185,0.32579751615993974,0.971781619384614,0.5296427493442912,0.5496344033322523,0.4009388348828946,0.09109678786081418,0.7738322048661547,0.8597148847389914,0.053557562298595755,0.704905860504045,0.47822375933487493,0.9607483022529194,0.12780159200731855],[0.04678437352289351,0.28165276539932294,0.6936809182164381,0.041498592984896665,0.8315185980511691,0.3157743808027235,0.7532811168274802,0.671294963565606,0.8305641760514112,0.06169793759493057,0.5896061277394953,0.7010456009889312,0.10886389191541596,0.2734749379424266,0.3867331659175817,0.28731585083817046,0.5493084990652163,0.3675724552226674,0.36068327693167507,0.7652716771263156,0.38875123780286835,0.5935496805062475,0.06874302439221702,0.7766118091293603,0.5011868650806165,0.3768980917560108,0,0.48615593772618065,0.3452130461366827,0.7891091590664747,0.4825714781656528,0.7981503336508294,0.5520879112791148,0.7347963444427499,0.8281037592186531,0.2647025045131006,0.32979203815266533,0.35213320900412626,0.5952363093721494,0.31689875797813777,0.2933115747004037,0.6424034198820686,0.7904456280203733,0.7062782504772285,0.04909410748566101,0.8502937895210771,0.44177776831206333,0.32672873305710903,0.6467811020192885,0.057270100154555845,0.3350200694927545,0.6884884626897998,0.6374946298379977,0.3489309012017446,0.34757030326560256,0.07737043515142764,0.7153173314288476,0.28749069270858685,0.6820097268620278,0.8253055171104106,0.7108846954942862,0.10380369094154952,0.39665007854991124,0.3261528190923255,0.0804515436237406,0.3575235406914522,0.3318828620307822,0.05845953546334122,0.6911630042890723,0.061901502019951544,0.7188613320975387,0.5745877926729853,0.36810274875927435,0.38448152467811947,0.07451279912754019,0.874597822214644,0.050611397440812174,0.8206289711049533,0.7501267497675299,0.5830559673489679,0.07194769079089272,0.3261476724950563,0.8263254543304828,0.8666532712228348,0.3913142227056278,0.3310876489240417,0.6755269532876903,0.8168847615077306,0.31863066847631],[0.5218926299393629,0.5734218322596831,0.5745407286181792,0.477132474325244,0.39941175236224163,0.600558051258061,0.5762443667816761,0.38450340532366833,0.3594647585238429,0.48572190422262695,0.3231334742119803,0.5377817737589174,0.38988807836005324,0.5701113744346138,0.1337947762778992,0.5193661749370823,0.2991500101063692,0.5568596532947002,0.5748201154680129,0.30507096954325286,0.4369636330818424,0.35717546430401437,0.4543924971880615,0.30116050020623925,0.03867567911086561,0.6251487614880007,0.48615593772618065,0,0.5996141954842698,0.3463693977834829,0.019623264876884348,0.353965881648761,0.30691770074804126,0.5257737997302312,0.41058676059210686,0.5139053097599993,0.593444286475515,0.589560252056422,0.3071143321611033,0.4850823078602021,0.5122271397337744,0.3278775738285246,0.3704162509732947,0.5676010902240466,0.4920177519921472,0.40152626036178324,0.04833526479839451,0.5788781058328432,0.3852029385191078,0.42960133426599306,0.5350613450662297,0.5263034795952499,0.33895215623012936,0.1740740861632278,0.1975360885346546,0.41765913032003543,0.23646121578290694,0.4984685559616857,0.38397793031899435,0.38432394774943923,0.5800477661520506,0.3846346634080704,0.1541851322567995,0.55019045818056,0.4363924510326172,0.5848621975273851,0.4321355017660763,0.4399656391822848,0.37023460248783696,0.4624955039721192,0.3913744299689133,0.2956843491955827,0.5449425949430928,0.4982416499974373,0.4664496192394701,0.4212213180157863,0.5109897106553092,0.34737688547922835,0.5711420171206347,0.25280865360562693,0.4107302884600904,0.5288354369970213,0.41842066455737686,0.4129670231275117,0.5880558629664173,0.49180162641479264,0.4997569335841049,0.339229533713087,0.49242916009740517],[0.3078124657762272,0.05928437897870865,0.45435910064520335,0.30010664356516625,0.7918098128863943,0.0317596559143098,0.5353043464099227,0.9175584556014409,0.9607483022529194,0.27855059611051025,0.8363960627845488,0.4881683137746751,0.30743632179150504,0.06753418427059225,0.5762443667816761,0.07774127629255997,0.4630858333234826,0.06400279788458199,0.03804963077261527,0.9097185274533928,0.7121434294232115,0.8530582526297409,0.28326524301115386,0.9016773303244021,0.5876906749077637,0.0274505990826289,0.3452130461366827,0.5996141954842698,0,0.7686199827695644,0.5822639954109704,0.7775840817720872,0.46065414012004136,0.5427963932283721,0.7742064548048825,0.0914678984013419,0.010555877201100372,0.013244900319848077,0.5111383587189565,0.11258519346736176,0.08282722731549003,0.5564681108688085,0.7463830316431306,0.4759004907423107,0.2909716147484625,0.8262659752619977,0.54614403568024,0.017091997290321875,0.9015927028389437,0.32548824680367,0.0648597457591437,0.47871033440805494,0.8756032786239356,0.5580901734730043,0.5734129902594917,0.310821690144315,0.8369774353734859,0.632807391389098,0.9241659941526631,0.7963225974142656,0.4742671492495214,0.32678524215957017,0.6015847602221658,0.044948408224432246,0.2847982014522078,0.023977728404211383,0.6598643477377044,0.3075072240879799,0.9234555700516774,0.28553232380828825,0.9498821695794037,0.4944708811123042,0.07714298807427647,0.722376351512145,0.2711151256268003,0.8527084607294334,0.2947306689676243,0.9479016583352101,0.5341925894963325,0.5349350674569908,0.36830826340591044,0.0683036370427995,0.7635698728222918,0.8463075303274205,0.060229218254605255,0.6723806082565508,0.4790802270892738,0.9372620119683314,0.1052951581799962],[0.8123039926465699,0.7704778160882424,0.49643290645095767,0.7666339542703444,0.05018212608673907,0.7853925612963103,0.4452628200920341,0.6371230334644961,0.37960652192567695,0.7679960369668193,0.6082679144853383,0.4373491495854483,0.6780575592672482,0.7706800598474488,0.48536049569559053,0.7067766455174734,0.30260435463524143,0.7055084068713181,0.7304347155487867,0.38816207718503953,0.7856405903375001,0.6470138576807882,0.7378597276148036,0.3420697013139715,0.31030863347094134,0.7826785696639844,0.7891091590664747,0.3463693977834829,0.7686199827695644,0,0.3346439292936871,0.004010593878125328,0.3063051648826644,0.38725929736108006,0.07434150674561983,0.7123098261407683,0.7694239764361145,0.7527210499037011,0.2582050096765123,0.6548528831731028,0.6960049793049811,0.22118069194545834,0.04846248345116887,0.47542171596273597,0.7783375250577265,0.056168801339289684,0.36647289426475715,0.7536744908324874,0.6532645726136427,0.7271447010378833,0.6987696748684572,0.43270055299922267,0.5992870243170535,0.5247997363392447,0.5490347144674285,0.7095497830172757,0.31562558358569837,0.8491068516123904,0.6291079453865027,0.032850308274947046,0.4892938745369832,0.6802032189347266,0.5046973313371008,0.7206679601430398,0.7195675821464281,0.7441310094394187,0.7835612087931267,0.7316160801513186,0.6031341899723516,0.7469954310534751,0.6115284182656134,0.271805480688085,0.6914568218300706,0.8485377338305472,0.7458768585925812,0.08159841322604433,0.7979316496044244,0.3669818449612106,0.4405284166638709,0.22863589570426088,0.7216259048437044,0.6966661948862238,0.09236329148167924,0.07421279506364867,0.7289286224101813,0.8433944793988573,0.40774702601152785,0.34713980400112515,0.6615366967643364],[0.5164451351721114,0.5579690593510659,0.5496958732394809,0.4712521828600341,0.3866635419405721,0.5843417374897394,0.5517389467374593,0.40935036972307487,0.3742647143019161,0.47881252349760345,0.3477008003475777,0.5130636134287971,0.38305663786975563,0.5549205171951878,0.14726262206195273,0.5027470830348084,0.2743913304627691,0.5379199494886812,0.5564316744411035,0.3224211397848758,0.4532816878163584,0.3815118635340692,0.4474193455663065,0.3154820351722392,0.019416490318535123,0.6072022854592729,0.4825714781656528,0.019623264876884348,0.5822639954109704,0.3346439292936871,0,0.3425555192602086,0.28215170205003015,0.5015336213760706,0.39612350968076326,0.4981027466429103,0.5765375932649356,0.571754198585905,0.2830405124403253,0.4668977581564774,0.4952756965777755,0.30490053987181165,0.3558175941704486,0.5427963932283721,0.4857531674533457,0.3913142227056279,0.036073361293915106,0.5617897735686094,0.40995875624181544,0.42468259498169625,0.5168993584913578,0.5015571787276675,0.36379747462276224,0.1851732655116943,0.21023464298621464,0.41169269593208024,0.25060491037290006,0.5092523097996703,0.408807000488236,0.37271107915518464,0.5552279434162201,0.3789811454924629,0.17057769317365126,0.5325967547229713,0.42922464486797407,0.5667728131503199,0.4459135063869739,0.43414687806665275,0.39493619628127247,0.45574117399021946,0.41592950783567034,0.2712940436372513,0.5257898583979427,0.5133629666681581,0.4589818504827046,0.4119585017662202,0.5049447668258473,0.36180018332045266,0.5466448941315635,0.22935675368288347,0.4081515392208875,0.5108971969198948,0.40298277011152633,0.4037007385473119,0.5688739432767416,0.5046973313371008,0.4750490056063318,0.35261013023805654,0.4742671492495213],[0.8214380844229056,0.7795945538829014,0.5025926203131934,0.7757606235787665,0.04518579031728148,0.7944416332687038,0.450356202740808,0.6408214597802294,0.37903440864309634,0.7771591336390236,0.6129784482276962,0.44329369039770483,0.6871596335105784,0.7798118286763686,0.492980598962616,0.7158804335019333,0.3113285277616525,0.7143817987503864,0.7393363028076335,0.38924873847370073,0.7926759389100003,0.6517528996435217,0.7470090342666056,0.34266338667056656,0.31827764762722116,0.7915530021419946,0.7981503336508294,0.353965881648761,0.7775840817720872,0.004010593878125328,0.3425555192602086,0,0.31496046687411355,0.39252092417880624,0.07245431597680958,0.7214569475400118,0.7784311104658096,0.7616575004948921,0.26667290989959436,0.6639035881889556,0.7050979626475024,0.22912399161254335,0.051158515561366406,0.4813567709866636,0.7874843504132952,0.04701341307237677,0.3747093669255179,0.762684243626306,0.657346622773965,0.7362054165526853,0.7077508626010827,0.43883794453157837,0.603333196227885,0.5325904126126632,0.5566897149000672,0.718642254668189,0.31784506730007517,0.8569658309887337,0.6326282761749056,0.02523550410723815,0.4951939100597691,0.689257527453982,0.5120458353795088,0.7296739325285291,0.728712550038232,0.7530472436000127,0.7910134299694567,0.7407185090910778,0.6064248490285795,0.7561424735768362,0.6144443506831748,0.2804672834116891,0.7003280622696173,0.855748474902798,0.7550463321913166,0.07236644487567281,0.8070803874055653,0.36656464855073345,0.4456601530260063,0.23767190042316952,0.7305645267168448,0.7056739576134229,0.09160889973175615,0.06498131299417387,0.7377197135286224,0.8509633333772874,0.41407888246139213,0.34667000837196305,0.6705786435376436],[0.5610885286458915,0.46925792080057094,0.26381016307689575,0.5184648701882925,0.32604472375855326,0.48033224215165177,0.26652233025588906,0.696138731265361,0.583171917657061,0.5134024289256649,0.6347850092561282,0.22581856079289472,0.43859208021369533,0.4705644616999307,0.3998624824787876,0.4052700325062756,0.002611856281798708,0.395698353605659,0.42109732411027057,0.5547652180453254,0.6917113635025731,0.6678476478166613,0.4871371758728296,0.5273964820884057,0.2670239385144625,0.47277096312073,0.5520879112791148,0.30691770074804126,0.46065414012004136,0.3063051648826644,0.28215170205003015,0.31496046687411355,0,0.22079619508518133,0.3086612167051883,0.41416022147186143,0.46279076172418976,0.4440914875454265,0.04548936316902611,0.350780059395854,0.39390775269779194,0.09293831139139025,0.2806284159750013,0.25560253813541217,0.5262906451143441,0.3618141231424251,0.2774848468434596,0.44720076297826056,0.6973340706471323,0.4907299020433003,0.3915721895128775,0.21420330643163116,0.6507423156745968,0.4204688003393135,0.448645971785099,0.4696028520632083,0.4705644616999307,0.7040575885003331,0.6949413511731497,0.33157411691431726,0.26824275404265074,0.44763405669783374,0.43067076563861023,0.4142130833700654,0.47052144611865426,0.43506584944001436,0.6672088195288787,0.4889385296201682,0.6793268281662571,0.49625609438475665,0.6986727668162355,0.02927850359444967,0.3816353198046658,0.7406544899210963,0.49096024315754344,0.38819242316609964,0.5447875792156048,0.5691263937774175,0.26155666310004805,0.08228321806635824,0.5005937993368018,0.39040570358376253,0.29906034667395043,0.382146362342353,0.4180259659922361,0.7159986763732807,0.18788592657647957,0.5531273874804984,0.356973050038903],[0.7324950826715159,0.5756927002990664,0.11757520416567642,0.694892633871133,0.3729185993190652,0.5732302253291583,0.05344139365765782,0.9103017721766486,0.7457020021056514,0.6848206105973443,0.8537593945359712,0.058566566207812,0.6266431103286162,0.5799282822519782,0.6257707107589557,0.517764230826812,0.22783964501925408,0.4739148976496343,0.49953398555198103,0.7326060400764202,0.9160491233773991,0.8881685913557118,0.6635568663053594,0.6962457144714929,0.48349710314047906,0.5414097911270014,0.7347963444427499,0.5257737997302312,0.5427963932283721,0.38725929736108006,0.5015336213760706,0.39252092417880624,0.22079619508518133,0,0.34061801542814246,0.5343948974857469,0.5510587559777214,0.524336187045329,0.213650778881219,0.4626121712766367,0.5060734225932043,0.20374111344445017,0.3380193210083312,0.09194295785219685,0.6990675835860288,0.4189155317303958,0.5014663086222085,0.5377817737589174,0.9143611456324349,0.677345837664464,0.48550300583947475,0.06291020188158122,0.8655963553508934,0.6462891650336202,0.6744237508649671,0.655201592283842,0.6488494548733684,0.9202159780774752,0.9076602250742758,0.3916624382828003,0.10413168759597508,0.6394128957756787,0.656442536051425,0.5086054932491358,0.649422837581647,0.5136654339460508,0.8892522222616467,0.6713680662465972,0.8894295226996549,0.672048298699608,0.9065086885719018,0.22522728081301008,0.46166340557931373,0.9630284357615451,0.6636078660903001,0.4404939813203857,0.7154995596548999,0.7318798909702996,0.04846248345116887,0.2704477887883435,0.6957690272902004,0.48858983630037384,0.3207564605285521,0.4381461036291651,0.48281265899620174,0.9356193443346288,0.058806731252602995,0.7134426751661888,0.46621453753286174],[0.8472383244486504,0.7825898184055515,0.45732195046681345,0.8021251036761058,0.029622796531939038,0.7942134015278904,0.39646331054361605,0.7159702998521997,0.45544880213933214,0.8014678779685787,0.6853542494336079,0.39663310322713974,0.7151113817306642,0.7836195838954838,0.5484898191777289,0.7185597889993811,0.3068302692380983,0.7084203134636677,0.734097721655854,0.4669158193525284,0.8525096517807449,0.7240082451741578,0.7722785683204378,0.42018425854377334,0.3714861941390757,0.7852027125954472,0.8281037592186531,0.41058676059210686,0.7742064548048825,0.07434150674561983,0.39612350968076326,0.07245431597680958,0.3086612167051883,0.34061801542814246,0,0.726469073530278,0.7766118091293603,0.7574226683127206,0.2579977588426473,0.6644971871584296,0.7073153822562656,0.21283109444669648,0.03511234682462212,0.43419733559729107,0.8127211071582952,0.07504573188527469,0.4240474020111977,0.7610456906961206,0.7315697878120456,0.7656633571391347,0.7053668184005876,0.39404446204275906,0.6776680772261977,0.5861671113079041,0.6115754250208228,0.7468661882572778,0.3951534950472659,0.9088233716670141,0.7081526085062463,0.05367350180939518,0.4475850964545141,0.7191839383751805,0.5699779668353868,0.7280732538776157,0.7543124470479293,0.7481983644479305,0.8472383244486504,0.7683973602158523,0.6823868287683175,0.7815001771073787,0.6910013517884603,0.2755235030194899,0.694388210537424,0.9140383911977932,0.7790402307044832,0.09474591828432594,0.8321298348454131,0.44319481676706396,0.3921090824357351,0.2456368913765509,0.764155292633285,0.7042835730375233,0.01631420609398075,0.09295568366370659,0.729263060673674,0.9059454766642697,0.3715359902586907,0.42325208661835145,0.6707628405313075],[0.2353649729850068,0.05527332927753597,0.463911773518341,0.2181243634162299,0.7406979320999336,0.08206857257932704,0.5373418895987373,0.8219227601377465,0.8775875743686359,0.1981827179665567,0.740524148200716,0.4868357314633496,0.21296401418291108,0.05378921354053496,0.48212375416977166,0.017620699939529257,0.41513506195582506,0.09767149190905611,0.09267735738798066,0.8240684202693584,0.618099496456968,0.7567268851889263,0.1965918381755454,0.8187517488386539,0.505676340012212,0.12339529302721952,0.2647025045131006,0.5139053097599993,0.0914678984013419,0.7123098261407683,0.4981027466429103,0.7214569475400118,0.41416022147186143,0.5343948974857469,0.726469073530278,0,0.08017240544014209,0.09054632976091614,0.4646818251612036,0.06663794258179936,0.026227201879894524,0.5122271397337745,0.695545164341508,0.48190673992432953,0.21206326585824617,0.7718134079761999,0.4603648534346085,0.069225646096345,0.8055210472319064,0.2361010662352596,0.06556192957100906,0.4757870464792295,0.7803004772288386,0.4625866527899764,0.47731629370956025,0.21946425072933598,0.7538812114137778,0.5446108079763363,0.8287727133407404,0.7425909257487245,0.48307467696030143,0.23251260558457884,0.506726769569935,0.057270100154555845,0.19509902382772595,0.09272960380455289,0.5667966652217916,0.2191528327511319,0.8286765969939333,0.20045064135837148,0.8552788877184194,0.44615160445031954,0.09915254814315472,0.6310086090639194,0.18639649017327986,0.7981460879253824,0.22010093359094776,0.8650693757073898,0.5353390519702572,0.47937945723191133,0.2774426159682685,0.05707877817090624,0.718010563603318,0.7912725558771454,0.12242366557645074,0.5823133435134841,0.470621809759473,0.8553918498098473,0.06373127192650055],[0.2921152192104928,0.04353482456596406,0.46478343577539244,0.2848276020213964,0.7936158510120798,0.018137440210649627,0.5449456948121348,0.9072715570683082,0.9554921566447206,0.26320091403906604,0.8259090114635019,0.49727530809462656,0.29397351628308227,0.05179018466612686,0.5668920635635144,0.069225646096345,0.46497208294493886,0.07212428462216362,0.04766234634682116,0.9037022735023533,0.6983043944778548,0.8420891952952959,0.2684173177359924,0.8964702577101192,0.5825687262837747,0.04207901655070435,0.32979203815266533,0.593444286475515,0.010555877201100372,0.7694239764361145,0.5765375932649356,0.7784311104658096,0.46279076172418976,0.5510587559777214,0.7766118091293603,0.08017240544014209,0,0.024841011015245072,0.5134024289256649,0.11046707501495373,0.07603818412356275,0.5592092470963255,0.7481983644479305,0.4859302881721286,0.2755235030194899,0.8274731825119965,0.5399133049621373,0.010555877201100372,0.8909170808533542,0.3109080177620703,0.06604216331522898,0.4875838057695541,0.8655650197571096,0.5478888893475031,0.5627124094762342,0.296584163731886,0.8316979404454261,0.6178696252179512,0.9140643641373218,0.7976428104893606,0.4846438416690817,0.31323001760429264,0.5918182976844377,0.04353482456596406,0.27033021976523697,0.03511234682462212,0.645762799934712,0.29281415371516945,0.913765631013854,0.2705220170806779,0.9403007287167956,0.49636830926825465,0.08419184354100921,0.7078895861730917,0.2560990020953084,0.8539142438896505,0.2791029670715702,0.9427362028793799,0.5437167776093208,0.5355882355600882,0.35390890059067753,0.06753418427059225,0.7663532920054873,0.8474183607841385,0.07341441794020623,0.6576863021615966,0.4871995206423904,0.9323653930543442,0.10341192753491944],[0.316580936611656,0.07011374142174633,0.4360795316159003,0.3064529399011396,0.7753346827273274,0.04807991661036482,0.5168928257059934,0.9125251281699844,0.9496107180149014,0.2852506402612377,0.8316897893521518,0.4697105917078941,0.3085905751385906,0.07811046718897027,0.5700520859877335,0.07334932911914577,0.44665761804907317,0.04572422484893685,0.019623264876884348,0.8993707563747323,0.7137202711770905,0.8490908815481469,0.2880727461870788,0.8905059162621951,0.5765639763993828,0.03063584718176762,0.35213320900412626,0.589560252056422,0.013244900319848077,0.7527210499037011,0.571754198585905,0.7616575004948921,0.4440914875454265,0.524336187045329,0.7574226683127206,0.09054632976091614,0.024841011015245072,0,0.4944879457274778,0.10011216308951826,0.07605916847425138,0.5395628029226011,0.7299106018422998,0.4575431230948641,0.2981172805022768,0.810119007354457,0.5361933682383164,0.020500088554565966,0.8971508985656148,0.32938453822904257,0.05067245280077522,0.4602439589237563,0.8702197082114503,0.5531151695984624,0.5691768705632372,0.31380787692657985,0.8258966996324912,0.6375264709594216,0.9188586436702572,0.7801159123990682,0.4559778963008449,0.3280976572143948,0.5959487859709683,0.034644543281971384,0.28846788364871734,0.0055452467651916654,0.662117067682543,0.31177538092763135,0.9175603037587419,0.29087947481472876,0.9438276114089352,0.47802263970176234,0.05909904855641235,0.7256411620351828,0.27651798847313547,0.8365581582239214,0.30294212533718995,0.9366773551387044,0.5157679678861928,0.5191970950363868,0.371617460624617,0.05572270995177271,0.7466030992149006,0.8302131315707582,0.04335962264429971,0.6762856202648991,0.4606285143762226,0.9257775790991466,0.09272960380455289],[0.6063997539811499,0.5199412889068262,0.27908497190190407,0.5631116531914186,0.27586954627571464,0.5310184336847235,0.2659317548456398,0.6918948695282429,0.5543508762665466,0.5589765416997664,0.6349022464917498,0.2325843317343925,0.4812901720648442,0.5212127510707496,0.4135905166603917,0.4559446145682477,0.044470242317366106,0.4458681401261127,0.4713702849942382,0.5310184336847235,0.7127090209132223,0.6694370164257801,0.5319875707147913,0.5002632679576706,0.26464563470609764,0.5228655965649176,0.5952363093721494,0.3071143321611033,0.5111383587189565,0.2582050096765123,0.2830405124403253,0.26667290989959436,0.04548936316902611,0.213650778881219,0.2579977588426473,0.4646818251612036,0.5134024289256649,0.4944879457274778,0,0.4014927160471127,0.4445960272203048,0.04325419756119798,0.23049541248463212,0.2664909489932612,0.5715561240127269,0.31249011232368396,0.28563202131352916,0.4978282150852995,0.695545164341508,0.5333667653605958,0.44216676046875164,0.22254752698531127,0.6470347754695189,0.4383691479680735,0.46660507045922456,0.5126422522547068,0.44644621863134953,0.7336177566296811,0.6895717879280999,0.28213983267329856,0.28003715160256787,0.4892697329697602,0.4433050974910148,0.464852373326228,0.5150079695573888,0.4853883058035042,0.691669762085754,0.5325555296690347,0.672048298699608,0.5411632625046298,0.6899055340111734,0.015424824365158846,0.4318117298661253,0.7644566987616778,0.5364641980392213,0.3387935543985832,0.5903024302658088,0.5402885929539403,0.26074996257234384,0.05367350180939518,0.5408104394876546,0.44106373543084887,0.24836184291310046,0.3329335128972527,0.46772425332746836,0.7427756296154435,0.19492868133400235,0.5234369036329248,0.4076850757541238],[0.29478752050270224,0.11396682571682314,0.39308651127075717,0.2704292285920848,0.6804022424240175,0.1253168539490959,0.4656534844614463,0.8170963313335236,0.8443645987945015,0.25286152367403736,0.7373201840257197,0.4150376796634657,0.2440478335405099,0.11623462545614541,0.4725461310803972,0.05106769849066827,0.3524432801440821,0.06997779402558917,0.08464843658360675,0.7945418640062859,0.6428246237036427,0.7568119345598996,0.24440334991418797,0.7852523365434767,0.4713559711427946,0.13518633855194517,0.31689875797813777,0.4850823078602021,0.11258519346736176,0.6548528831731028,0.4668977581564774,0.6639035881889556,0.350780059395854,0.4626121712766367,0.6644971871584296,0.06663794258179936,0.11046707501495373,0.10011216308951826,0.4014927160471127,0,0.039254597191424746,0.4482249283534597,0.6350407719119074,0.4106113688877887,0.2674620888284223,0.7133572394343786,0.43185855509223425,0.09472885716450755,0.8033767900199421,0.2780633779247948,0.04477815961411919,0.40395089626918634,0.7739525972638536,0.45901491447286513,0.47721732274412204,0.2584379721373063,0.7206773578938811,0.5826151475945549,0.8227017709335738,0.6836951578161279,0.4120933845478636,0.263378754424504,0.4997839508997385,0.06250852460400802,0.23840102357074788,0.09466058354333894,0.5947532749267163,0.263493018235259,0.8199430811485848,0.2500977635612819,0.845796662622469,0.3837675415602273,0.06136581817436015,0.6624773084051591,0.23716583806037955,0.7397828252132149,0.2785265555895696,0.8314064895322433,0.4636063088571647,0.4210133077451686,0.31524264492650594,0.039254597191424746,0.6550388842839561,0.7331698157502115,0.10222806756700609,0.6167518993115384,0.39880436859253016,0.8204554865244036,0.002163732589780779],[0.2657052361068244,0.07013637547783319,0.4334009832300217,0.24660718471798143,0.7226411681394779,0.08615393744890928,0.5076753044884889,0.8312433957732794,0.8742624146405555,0.22724616940329923,0.7504337514265018,0.4574694106325204,0.23436338890643743,0.0719255881401875,0.4889143706922451,0.006601969714978023,0.3953408737710925,0.07015900273792616,0.0709243291134915,0.8224669083869658,0.6386001853691531,0.7680004482443258,0.2236157416003983,0.8152505207315244,0.5013855215117707,0.11158205130763779,0.2933115747004037,0.5122271397337744,0.08282722731549003,0.6960049793049811,0.4952756965777755,0.7050979626475024,0.39390775269779194,0.5060734225932043,0.7073153822562656,0.026227201879894524,0.07603818412356275,0.07605916847425138,0.4445960272203048,0.039254597191424746,0,0.49161286848954155,0.677338341911073,0.45173918634349325,0.2413720394528963,0.7549229454160504,0.4587062255916755,0.06149375206893582,0.8159340996069177,0.26146715020934874,0.03693168018963101,0.44659345368151676,0.7889459688075056,0.4718424011583742,0.48804040378717295,0.24371921394657597,0.7504676042670408,0.5695063453079989,0.837580666150004,0.725417114961751,0.4526563716786579,0.25399562194329867,0.5146931625299754,0.03693168018963101,0.22064523333467068,0.07496070067025386,0.5883633667088894,0.24520141641837853,0.8363636399501924,0.22806637818815753,0.8626714100316302,0.42658651721410495,0.06956846920797902,0.6538599907229359,0.21427324580871776,0.781322398644336,0.2501845837515895,0.861523067182049,0.5057697989678893,0.4623642184595661,0.3016277191595363,0.027813946522412605,0.6981807526410182,0.7746067689419803,0.09815103824820558,0.6060985330593048,0.4421667604687517,0.8512202513364061,0.03473000587917712],[0.6543152519735457,0.5669725435428401,0.2881018185426788,0.6108339599242608,0.2330714970040415,0.5772436625265024,0.2602686199413928,0.7050187268092525,0.5429737495424302,0.6069822513255633,0.6522277784745688,0.23518769148900887,0.5283658051618809,0.5684133063477718,0.44354457947135095,0.5030390907052203,0.09272960380455289,0.4904099974038919,0.5161344671163186,0.5255746318873765,0.7465123575064011,0.6878834231136204,0.5797883676526704,0.49125231316941,0.2842390232602811,0.5671543270185877,0.6424034198820686,0.3278775738285246,0.5564681108688085,0.22118069194545834,0.30490053987181165,0.22912399161254335,0.09293831139139025,0.20374111344445017,0.21283109444669648,0.5122271397337745,0.5592092470963255,0.5395628029226011,0.04325419756119798,0.4482249283534597,0.49161286848954155,0,0.18813305053023788,0.27174391180339275,0.6194687574642609,0.27205777018458727,0.31314967641319436,0.5437167776093208,0.7108823139398652,0.5803740369362281,0.48794358498764073,0.22707737525021374,0.6608687730791662,0.4711555320630499,0.49923994896331364,0.5598222837623587,0.44136934377166004,0.7732606343984426,0.7016683262892274,0.24160016087855324,0.2857375461433528,0.5359097965526015,0.4721818928083251,0.5108178862317186,0.5627003977990188,0.53026734040654,0.7279825449272729,0.5799370258036504,0.6824463522709934,0.5889778967876195,0.6988060119490362,0.063483498992729,0.47638587189612197,0.8001433471999756,0.5844574349740604,0.2980329355497044,0.6382822345379927,0.528988696752298,0.25505271306453775,0.07159328522860507,0.5867666362226287,0.4871441034592865,0.20192135607017908,0.2926767879683065,0.5112539443014917,0.7805609655405696,0.19966971236529352,0.5112539443014917,0.4542923002779406],[0.8104891533548121,0.752430731947776,0.4502888153537347,0.7652163390419452,0.04020306867966636,0.7652274069767944,0.39548135031168985,0.6815132246555223,0.4328251557839008,0.7650325880913373,0.6487868736215069,0.3904100142819779,0.6777854445517182,0.7531776817950508,0.5082070472784069,0.6884343749472421,0.2780754180927025,0.6815231582174575,0.7069490856139915,0.439425162937878,0.8124374924411275,0.6873394205686926,0.7355956081201017,0.39411706984662,0.3311789152572929,0.7585578254077561,0.7904456280203733,0.3704162509732947,0.7463830316431306,0.04846248345116887,0.3558175941704486,0.051158515561366406,0.2806284159750013,0.3380193210083312,0.03511234682462212,0.695545164341508,0.7481983644479305,0.7299106018422998,0.23049541248463212,0.6350407719119074,0.677338341911073,0.18813305053023788,0,0.42839556294028414,0.7760771982955893,0.08005249508190174,0.38374123496396023,0.7325459402202179,0.6962457144714929,0.7280639509119392,0.6770759386628651,0.386554729706209,0.6424850495162174,0.5458346365625555,0.5712633220831422,0.7095092198960646,0.36483125286039025,0.8685115090800143,0.6741125247770895,0.05018212608673907,0.44211720184516756,0.6814536202662085,0.5298212783338901,0.6995178404919465,0.717538792619817,0.7209146107948176,0.8069439071717109,0.7311738695033515,0.6489146373108651,0.7448043701021516,0.6584268173458212,0.24668843796722903,0.667462395422986,0.8738376400080721,0.7426616202711619,0.1052951581799962,0.7955434813678219,0.4200880323516451,0.39085807074135515,0.2119926149123298,0.7257648252692918,0.6756171361927279,0.04518579031728148,0.1006289935491751,0.7034032698176418,0.8656178979175512,0.3625058027542523,0.40029588963290663,0.6414652570992931],[0.6974093186448311,0.5161573647641899,0.021219316891611877,0.6635364653023921,0.46552670251483697,0.5088941734819513,0.056168801339289684,0.9569644320016711,0.8199410143537768,0.6508878941110757,0.894942617875917,0.032850308274947046,0.6042433108583593,0.5213390806642894,0.651724344077368,0.46298021177603255,0.2634104992471584,0.40881111960252364,0.4332259805737311,0.8010322502248614,0.9274704948000511,0.9274101517482759,0.6330131781366433,0.7679320706146358,0.5278285764237213,0.47017718135040837,0.7062782504772285,0.5676010902240466,0.4759004907423107,0.47542171596273597,0.5427963932283721,0.4813567709866636,0.25560253813541217,0.09194295785219685,0.43419733559729107,0.48190673992432953,0.4859302881721286,0.4575431230948641,0.2664909489932612,0.4106113688877887,0.45173918634349325,0.27174391180339275,0.42839556294028414,0,0.6655302718088743,0.5111482670683967,0.5357175134440807,0.4739825215703259,0.9579140066279048,0.6526323225540993,0.4253485390958859,0.03944590263236804,0.9115583053808389,0.666559229079008,0.6940541650418584,0.6304212989987632,0.7165399811959514,0.9168928782755166,0.9557300019802184,0.48300831237524644,0.008841563966438171,0.6191137487096442,0.6832618014866687,0.4474532540944789,0.6207206009798245,0.44677460021140364,0.8953934179930653,0.6441837709861714,0.9398298441416301,0.6409138471637477,0.9587777312523239,0.27174391180339275,0.39786619218895375,0.9692507305860485,0.6309255067932844,0.5336168610233063,0.6804196542306914,0.8059542643559297,0.056501254206234176,0.3253592991794102,0.6764282454322632,0.42983659951676084,0.4149280976049808,0.530811669787988,0.4127916255082017,0.937082852297995,0.06701666275471127,0.7882068983737136,0.4129670231275117],[0.029622796531939038,0.22734152060280233,0.6517528996435217,0.011398039031503528,0.8183231928358747,0.26146715020934874,0.7145145052101218,0.7057819047214863,0.8451511284745845,0.009551177743158978,0.6234745631869969,0.6623317025859404,0.097754331633023,0.21916043345387676,0.40483772367879994,0.23481852658274416,0.5241686944934553,0.3149285065174047,0.30719622539127267,0.7817125913693398,0.4373491495854483,0.6300106642938744,0.03528111768470157,0.7897530040373307,0.5025019355257375,0.3226032702369285,0.04909410748566101,0.4920177519921472,0.2909716147484625,0.7783375250577265,0.4857531674533457,0.7874843504132952,0.5262906451143441,0.6990675835860288,0.8127211071582952,0.21206326585824617,0.2755235030194899,0.2981172805022768,0.5715561240127269,0.2674620888284223,0.2413720394528963,0.6194687574642609,0.7760771982955893,0.6655302718088743,0,0.8397208775118052,0.4444898553815366,0.2726476007279996,0.6827463714956115,0.06167244848710881,0.282703087699706,0.6499957185227484,0.670104041899176,0.37010739624027905,0.37255310701361755,0.069225646096345,0.7271237426593891,0.3408497087813199,0.7157858252430551,0.8136775816457342,0.66944965561064,0.10246588072429341,0.41842066455737675,0.27294204699008917,0.053557562298595755,0.3036883375292671,0.3812251165708677,0.04733888117845843,0.7231166588112387,0.02611856281798709,0.7507947702414791,0.5509790395820076,0.31604522722416195,0.4363654173672806,0.030445103489894768,0.8646224664032706,0.014408692227400117,0.8346129787815135,0.7115797708987565,0.564352620483958,0.09952768084645114,0.2739640549394753,0.8095959158013398,0.8568313135460628,0.3379398136884883,0.3836052891967467,0.6384862710429412,0.8296331769076162,0.2686602746126121],[0.8736746582786682,0.8296311341019362,0.5336168610233063,0.8279952848831862,0.040947819645016315,0.8438445276692734,0.47542171596273597,0.6700434304464048,0.38728971313782146,0.8293880045260584,0.647230847124375,0.47331654401381773,0.739379821893067,0.8299987586332934,0.5404261338784853,0.7658049325712262,0.3586501459814974,0.7623621452856003,0.7875273776538458,0.4063446741786933,0.8374187674060211,0.6860577258769652,0.7992449821573514,0.3576363586249041,0.36728413464121873,0.8395109363347285,0.8502937895210771,0.40152626036178324,0.8262659752619977,0.056168801339289684,0.3913142227056279,0.04701341307237677,0.3618141231424251,0.4189155317303958,0.07504573188527469,0.7718134079761999,0.8274731825119965,0.810119007354457,0.31249011232368396,0.7133572394343786,0.7549229454160504,0.27205777018458727,0.08005249508190174,0.5111482670683967,0.8397208775118052,0,0.42458340795881666,0.8117530754046706,0.6884319163132806,0.7883788366396076,0.7565970546852101,0.4700049554442925,0.6343771761339606,0.5806710183175872,0.6042125292008858,0.7708536836247885,0.3414749993346612,0.9051496505876729,0.6609814201702807,0.02523550410723815,0.5247225062813174,0.7414223576768983,0.5583716632044861,0.7787205015916552,0.7809493668775396,0.801349478179005,0.8375462652692078,0.7929387985240571,0.633699545020313,0.8083789520298098,0.6397963931856971,0.3274626027095097,0.748297956387982,0.9012164850886453,0.807269322189542,0.021219316891611877,0.8593164981766874,0.37580753886020235,0.4709729159245907,0.28735665662002646,0.7825053871972032,0.7547434379818435,0.09642079470113506,0.015424824365158846,0.785060296140168,0.8979575492364068,0.4465028531760366,0.35585538173732534,0.7199533747280863],[0.4752620183540182,0.5199218038313536,0.5407104835759571,0.43002472015631626,0.4169972151033387,0.5470001661004572,0.5491608567529204,0.4221521208874007,0.41267737352970973,0.43751867050132576,0.3551604027054748,0.5079046861434562,0.34177002027464104,0.516651055158373,0.1261113710933464,0.4658164396803372,0.26996481685105517,0.5039509539967861,0.5216499167701539,0.35862671061796736,0.4325798102335192,0.38668094909442524,0.40612499528034035,0.3541984605486629,0.05484898191777289,0.5718162676660479,0.44177776831206333,0.04833526479839451,0.54614403568024,0.36647289426475715,0.036073361293915106,0.3747093669255179,0.2774848468434596,0.5014663086222085,0.4240474020111977,0.4603648534346085,0.5399133049621373,0.5361933682383164,0.28563202131352916,0.43185855509223425,0.4587062255916755,0.31314967641319436,0.38374123496396023,0.5357175134440807,0.4444898553815366,0.42458340795881666,0,0.5253689608576608,0.4195423388373447,0.3836052891967467,0.4818157051728055,0.49593971725889935,0.3764291784139798,0.1588041891050709,0.18572781230735777,0.3704661889094124,0.28939552839781535,0.4795553886843565,0.42306099116387313,0.4044965431847243,0.5476298259770573,0.3378006315352597,0.1538745709124986,0.49677615193794944,0.3879279008869465,0.5315810639748195,0.42079318635906754,0.39293233992425775,0.4117990385963516,0.41445291137867296,0.434317634026213,0.27154063730662603,0.49215835469948316,0.49022070928624645,0.41768735974554894,0.446125155312556,0.4636972417569062,0.400468282091171,0.5441670789145175,0.23637652301251774,0.36772339133256055,0.4755175090639629,0.42936986590929127,0.43788830920671323,0.5352727939667384,0.4779767585886327,0.4701951179609494,0.3919158845986023,0.43919497368578087],[0.29087947481472876,0.044948408224432246,0.4531924091628776,0.28118868883022463,0.7779608940188354,0.030253334272128906,0.5326538303506557,0.8952968369657174,0.9405874745244613,0.2598829165912337,0.8141106490704931,0.4845950989751688,0.2858664689849002,0.052768908223260365,0.5541557857028728,0.05569472077807372,0.4493443430032287,0.06004657069274923,0.037891698335757354,0.8890863287395822,0.6907857567179699,0.830743723200471,0.2633406556842843,0.8815466917627481,0.5676010902240466,0.04909410748566101,0.32672873305710903,0.5788781058328432,0.017091997290321875,0.7536744908324874,0.5617897735686094,0.762684243626306,0.44720076297826056,0.5377817737589174,0.7610456906961206,0.069225646096345,0.010555877201100372,0.020500088554565966,0.4978282150852995,0.09472885716450755,0.06149375206893582,0.5437167776093208,0.7325459402202179,0.4739825215703259,0.2726476007279996,0.8117530754046706,0.5253689608576608,0,0.8792917423884236,0.30507646571609615,0.050611397440812174,0.4747399692004843,0.8533781079164776,0.5358341523358698,0.5511078065437757,0.2899622712047394,0.816797628693377,0.6129039582280669,0.9019311654119462,0.7819336147240976,0.4729992556909,0.3052742631442508,0.5794034298488447,0.027813946522412605,0.26425353880547703,0.028224367961755696,0.6387591019170563,0.28728670036593407,0.9012973850808134,0.2659380443316925,0.9277483881638032,0.48073950535229587,0.07112563138133209,0.7017189890908503,0.251549790028464,0.8381935758851221,0.2772917398814417,0.9277995700188973,0.5313331979111683,0.5198341120433914,0.34761864114564434,0.05179018466612686,0.7508556751673381,0.8316897893521518,0.06682755150014416,0.6520357922885938,0.47385438394526475,0.9173384984475522,0.08765339736073974],[0.697715082438543,0.8563425220209443,0.9643010684458138,0.6662849946377363,0.707731726196995,0.8899116784312262,0.9660304371129114,0.028830726945094167,0.3733152774207671,0.6849244060200979,0.06136581817436015,0.9281943071417141,0.6079926421546458,0.8504233552473057,0.3287876743593025,0.8190580194264875,0.6895717879280999,0.8785336679871706,0.8895915407594374,0.3123612571778323,0.3175545971298993,0.04836709777437704,0.6601719859117943,0.359525547339879,0.4261399892273559,0.9323017268735456,0.6467811020192885,0.3852029385191078,0.9015927028389437,0.6532645726136427,0.40995875624181544,0.657346622773965,0.6973340706471323,0.9143611456324349,0.7315697878120456,0.8055210472319064,0.8909170808533542,0.8971508985656148,0.695545164341508,0.8033767900199421,0.8159340996069177,0.7108823139398652,0.6962457144714929,0.9579140066279048,0.6827463714956115,0.6884319163132806,0.4195423388373447,0.8792917423884236,0,0.6181131765956976,0.8497853036084619,0.9167301085133218,0.04884234334911491,0.339229533713087,0.3229828170869238,0.6202954188663513,0.3475461318417909,0.455593160793746,0.044470242317366106,0.6852184083141791,0.9702617761020411,0.5919553937677421,0.29948041598155123,0.8579325522328574,0.6478578808426465,0.8958193871776157,0.363973051593307,0.6360495052609522,0.07271733488474594,0.6642934356820697,0.09173210768599338,0.6853344923860407,0.8695142129903719,0.3765364093852302,0.6753766218911166,0.6970742817463731,0.6957690272902004,0.3744399426537268,0.9608965950195862,0.6390582883213424,0.5780249071874141,0.8416180755028578,0.7464556383759013,0.6900257415015673,0.9107468751195752,0.41458293027971227,0.8901593254552417,0.38725495205769905,0.8099809437936619],[0.08741437837019933,0.2652579348133635,0.6411803767248795,0.04518579031728148,0.7692478300