"trial_id","rt","stimulus","response","trial_type","trial_index","plugin_version","time_elapsed","language","participant_number","success","raw_payload","placements","dissimilarity_vector","n_words","trial_category","distance_matrix","value"
"consent_form","5804","
    <div style=""max-width:800px; margin:0 auto; text-align:left; font-size: 16px; padding: 10px 0;"">
      <h1>Informed Consent Form</h1>
      <p>You are being invited to participate in a research study titled <strong>""Reproducibility of Psychological Science and Instruction.""</strong> This study is being done by Dr. Bria Long from UC San Diego and associated graduate students in the Experimental Methods course. You were selected to participate in this study because you are an adult in the U.S. and have been a represented population in previous psychology studies.</p>
      
      <p>The purpose of this study is to better understand how well previously published studies in the psychological field replicate online and with different populations. Your participation in this research should last approximately <strong>5-30 minutes</strong>. If you agree to take part in this study, you may be asked to view a set of stimuli, including pictures, sounds, written text, or videos and then giving some responses via key-presses, verbally, or with paper-and-pencil. We may also observe your choices or preferences among an array of stimuli. These stimuli will be taken directly from or closely adapted from studies that already exist in the published psychological literature. Stimuli will include, e.g., pictures of objects and human faces, audio and video clips, short text passages, etc. None of the stimuli will be disturbing, threatening, or offensive. The online and in-person experiments described in this protocol will take no more than 30 minutes. An example game you might play would be to click on an image on the screen that matches a word you hear being said out loud. Your total expected time commitment for this study is between 5-30 minutes, and is specified in the study description.</p>
      
      <p>Your participation in this study is completely voluntary and you can withdraw at any time. Choosing not to participate or withdrawing will result in no penalty or loss of benefits to which you are entitled. You are free to skip any question that you choose.</p>
      
      <p>We will not be asking for any personally identifying information, and we will handle responses as confidentially as possible. Your SONA or Prolific IDs will never be tied to your responses on this survey. However, we cannot guarantee the confidentiality of information transmitted over the Internet. To minimize this risk, data containing anything that might be personally identifying (e.g. Prolific IDs or IP addresses) will be encrypted on transfer and storage and will only be accessible to qualified lab personnel. We will be keeping data collected as part of this experiment indefinitely. This anonymized data (containing neither Prolific IDs nor IP addresses) may be shared with the scientific community or with other participants to be used as stimuli in future studies.</p>
      
      <p>If you have questions about this project or if you have a research-related problem, you may contact the researcher(s), <strong>Dr. Bria Long, <a href=""mailto:brlong@ucsd.edu"">brlong@ucsd.edu</a></strong>. If you have any questions concerning your rights as a research subject, you may contact the UC San Diego Office of IRB Administration at <a href=""mailto:irb@ucsd.edu"">irb@ucsd.edu</a> or 858-246-4777.</p>
      
      <h3 style=""margin-top: 25px;"">Consent Statement</h3>
      <p style=""font-weight: bold;"">By participating in this research you are indicating that you are at least 18 years old, have read this consent form, and agree to participate in this research study. Please keep this consent form for your records.</p>
    </div>
  ","0","html-button-response","0","2.1.0","5806","en","s486oxbbve_50759l","","","","","","","",""
"","1700","
    <div style=""display:flex; align-items:center; justify-content:center; height:100vh; font-family:sans-serif;"">
      <div style=""max-width:900px; margin:0 auto; text-align:center;"">
        <h1 style= ""font-size: 24px;"">Welcome! Thank you for participating in the study.</h1>
        <p style=""font-size:18px; line-height:1.6;"">
          In this task, you will be presented with <strong>90 words</strong> arranged <strong>outside a circle</strong>.<br>
          Your job is to <strong>drag these words into the circle</strong> and <strong>rearrange them</strong> based on their <strong>meaning similarity</strong>.<br><br>
          Words that are <strong>similar in meaning</strong> should be placed <strong>closer together</strong>.<br>
          Words that are <strong>different in meaning</strong> should be placed <strong>farther apart</strong>.<br><br>
          You can place the words <strong>anywhere inside the circle</strong>. There is no single correct answer — 
          we are interested in <strong>your personal judgment</strong> of how these words relate to each other.<br><br>
          <strong>You must move all words into the circle before you can finish.</strong><br>
          After the initial arrangement, you will arrange words from specific categories.
        </p>
        <p style=""font-size:16px; margin-top:30px;""><em>Press any key to continue.</em></p>
      </div>
    </div>
  "," ","html-keyboard-response","1","2.1.0","7508","en","s486oxbbve_50759l","","","","","","","",""
"","3478","<p style='font-size:20px;'>Which is your first language or primary language of use?</p>","1","html-button-response","2","2.1.0","10988","en","s486oxbbve_50759l","","","","","","","",""
"","1481","","","fullscreen","3","2.1.0","13473","en","s486oxbbve_50759l","true","{""placements"":[{""word"":""proud"",""x"":90.1,""y"":459.8,""cx"":113,""cy"":477.2,""angle_rad"":2.649,""angle_deg"":151.8},{""word"":""refrigerator"",""x"":612.8,""y"":191.8,""cx"":652,""cy"":209.2,""angle_rad"":-0.436,""angle_deg"":335},{""word"":""rabbit"",""x"":257.5,""y"":609.8,""cx"":280,""cy"":627.2,""angle_rad"":1.818,""angle_deg"":104.2},{""word"":""agreement"",""x"":634.5,""y"":305.8,""cx"":673,""cy"":323.2,""angle_rad"":-0.083,""angle_deg"":355.3},{""word"":""lips"",""x"":617.5,""y"":462.8,""cx"":633,""cy"":480.2,""angle_rad"":0.431,""angle_deg"":24.7},{""word"":""scissors"",""x"":469.7,""y"":617.8,""cx"":500,""cy"":635.2,""angle_rad"":1.087,""angle_deg"":62.3},{""word"":""giraffe"",""x"":251.7,""y"":638.8,""cx"":276,""cy"":656.2,""angle_rad"":1.808,""angle_deg"":103.6},{""word"":""system"",""x"":14.8,""y"":276.8,""cx"":42,""cy"":294.2,""angle_rad"":-2.962,""angle_deg"":190.3},{""word"":""fault"",""x"":242.8,""y"":18.8,""cx"":261,""cy"":36.2,""angle_rad"":-1.847,""angle_deg"":254.2},{""word"":""friendship"",""x"":99.7,""y"":112.8,""cx"":135,""cy"":130.2,""angle_rad"":-2.345,""angle_deg"":225.6},{""word"":""method"",""x"":27.7,""y"":288.8,""cx"":56,""cy"":306.2,""angle_rad"":-2.994,""angle_deg"":188.5},{""word"":""ant"",""x"":249.3,""y"":603.8,""cx"":264,""cy"":621.2,""angle_rad"":1.878,""angle_deg"":107.6},{""word"":""depressed"",""x"":341.3,""y"":19.8,""cx"":379,""cy"":37.2,""angle_rad"":-1.478,""angle_deg"":275.3},{""word"":""sofa"",""x"":568.8,""y"":87.8,""cx"":587,""cy"":105.2,""angle_rad"":-0.802,""angle_deg"":314.1},{""word"":""violence"",""x"":329.3,""y"":32.8,""cx"":360,""cy"":50.2,""angle_rad"":-1.537,""angle_deg"":271.9},{""word"":""chopsticks"",""x"":630.3,""y"":211.8,""cx"":668,""cy"":229.2,""angle_rad"":-0.363,""angle_deg"":339.2},{""word"":""concept"",""x"":-15.5,""y"":355.8,""cx"":14,""cy"":373.2,""angle_rad"":3.073,""angle_deg"":176},{""word"":""sparrow"",""x"":218.1,""y"":606.8,""cx"":248,""cy"":624.2,""angle_rad"":1.927,""angle_deg"":110.4},{""word"":""chair"",""x"":575.8,""y"":88.8,""cx"":596,""cy"":106.2,""angle_rad"":-0.781,""angle_deg"":315.3},{""word"":""business"",""x"":205.4,""y"":331.8,""cx"":238,""cy"":349.2,""angle_rad"":-3.134,""angle_deg"":180.4},{""word"":""magic power"",""x"":193.3,""y"":459.8,""cx"":238,""cy"":477.2,""angle_rad"":2.293,""angle_deg"":131.4},{""word"":""result"",""x"":156.9,""y"":293.8,""cx"":179,""cy"":311.2,""angle_rad"":-2.918,""angle_deg"":192.8},{""word"":""hostility"",""x"":361.7,""y"":56.8,""cx"":390,""cy"":74.2,""angle_rad"":-1.427,""angle_deg"":278.3},{""word"":""dispute"",""x"":263.4,""y"":341.3,""cx"":291,""cy"":358.7,""angle_rad"":2.995,""angle_deg"":171.6},{""word"":""relationship"",""x"":226.2,""y"":288.3,""cx"":267,""cy"":305.7,""angle_rad"":-2.651,""angle_deg"":208.1},{""word"":""pencil"",""x"":569.7,""y"":227.8,""cx"":593,""cy"":245.2,""angle_rad"":-0.407,""angle_deg"":336.7},{""word"":""anger"",""x"":393.1,""y"":106.8,""cx"":416,""cy"":124.2,""angle_rad"":-1.286,""angle_deg"":286.3},{""word"":""team"",""x"":229.4,""y"":361.8,""cx"":250,""cy"":379.2,""angle_rad"":2.857,""angle_deg"":163.7},{""word"":""washing machine"",""x"":543.9,""y"":264.8,""cx"":603,""cy"":282.2,""angle_rad"":-0.262,""angle_deg"":345},{""word"":""thigh"",""x"":522.8,""y"":478.8,""cx"":543,""cy"":496.2,""angle_rad"":0.648,""angle_deg"":37.1},{""word"":""charity"",""x"":249.4,""y"":379.8,""cx"":275,""cy"":397.2,""angle_rad"":2.58,""angle_deg"":147.8},{""word"":""finger"",""x"":534.5,""y"":433.8,""cx"":557,""cy"":451.2,""angle_rad"":0.455,""angle_deg"":26.1},{""word"":""characteristic"",""x"":121.8,""y"":479.8,""cx"":168,""cy"":497.2,""angle_rad"":2.461,""angle_deg"":141},{""word"":""cat"",""x"":259.7,""y"":598.8,""cx"":274,""cy"":616.2,""angle_rad"":1.849,""angle_deg"":105.9},{""word"":""eye"",""x"":536.7,""y"":429.8,""cx"":553,""cy"":447.2,""angle_rad"":0.447,""angle_deg"":25.6},{""word"":""bed"",""x"":561.3,""y"":260.8,""cx"":578,""cy"":278.2,""angle_rad"":-0.305,""angle_deg"":342.5},{""word"":""computer mouse"",""x"":482.9,""y"":231.8,""cx"":540,""cy"":249.2,""angle_rad"":-0.488,""angle_deg"":332.1},{""word"":""microwave"",""x"":526.6,""y"":180.8,""cx"":565,""cy"":198.2,""angle_rad"":-0.615,""angle_deg"":324.8},{""word"":""reason"",""x"":157.6,""y"":329.8,""cx"":184,""cy"":347.2,""angle_rad"":-3.125,""angle_deg"":181},{""word"":""hammer"",""x"":506.3,""y"":248.8,""cx"":537,""cy"":266.2,""angle_rad"":-0.421,""angle_deg"":335.9},{""word"":""spoon"",""x"":541.9,""y"":176.8,""cx"":566,""cy"":194.2,""angle_rad"":-0.625,""angle_deg"":324.2},{""word"":""fate"",""x"":272.3,""y"":14.8,""cx"":289,""cy"":32.2,""angle_rad"":-1.76,""angle_deg"":259.1},{""word"":""arm"",""x"":629.9,""y"":482.8,""cx"":647,""cy"":500.2,""angle_rad"":0.468,""angle_deg"":26.8},{""word"":""rat"",""x"":196.8,""y"":623.8,""cx"":210,""cy"":641.2,""angle_rad"":2.019,""angle_deg"":115.7},{""word"":""excited"",""x"":229.8,""y"":242.8,""cx"":257,""cy"":260.2,""angle_rad"":-2.374,""angle_deg"":224},{""word"":""ear"",""x"":561.9,""y"":410.8,""cx"":577,""cy"":428.2,""angle_rad"":0.332,""angle_deg"":19},{""word"":""society"",""x"":183.2,""y"":260.8,""cx"":210,""cy"":278.2,""angle_rad"":-2.668,""angle_deg"":207.2},{""word"":""toothbrush"",""x"":518.9,""y"":168.8,""cx"":557,""cy"":186.2,""angle_rad"":-0.669,""angle_deg"":321.6},{""word"":""process"",""x"":118.5,""y"":291.8,""cx"":148,""cy"":309.2,""angle_rad"":-2.942,""angle_deg"":191.4},{""word"":""splendor"",""x"":187.2,""y"":204.8,""cx"":219,""cy"":222.2,""angle_rad"":-2.369,""angle_deg"":224.3},{""word"":""air conditioner"",""x"":549,""y"":128.8,""cx"":598,""cy"":146.2,""angle_rad"":-0.688,""angle_deg"":320.6},{""word"":""tortoise"",""x"":190.1,""y"":642.8,""cx"":218,""cy"":660.2,""angle_rad"":1.973,""angle_deg"":113},{""word"":""status"",""x"":-9.7,""y"":409.8,""cx"":14,""cy"":427.2,""angle_rad"":2.916,""angle_deg"":167.1},{""word"":""trauma"",""x"":265.2,""y"":31.8,""cx"":292,""cy"":49.2,""angle_rad"":-1.761,""angle_deg"":259.1},{""word"":""death"",""x"":300.5,""y"":25.8,""cx"":323,""cy"":43.2,""angle_rad"":-1.659,""angle_deg"":265},{""word"":""happy"",""x"":71.9,""y"":139.8,""cx"":96,""cy"":157.2,""angle_rad"":-2.492,""angle_deg"":217.2},{""word"":""identity"",""x"":71.8,""y"":163.8,""cx"":99,""cy"":181.2,""angle_rad"":-2.55,""angle_deg"":213.9},{""word"":""marriage"",""x"":86.4,""y"":90.8,""cx"":119,""cy"":108.2,""angle_rad"":-2.333,""angle_deg"":226.3},{""word"":""error"",""x"":77.2,""y"":295.8,""cx"":97,""cy"":313.2,""angle_rad"":-2.997,""angle_deg"":188.3},{""word"":""ankle"",""x"":564.3,""y"":467.8,""cx"":586,""cy"":485.2,""angle_rad"":0.52,""angle_deg"":29.8},{""word"":""tiger"",""x"":300.4,""y"":655.8,""cx"":319,""cy"":673.2,""angle_rad"":1.666,""angle_deg"":95.5},{""word"":""apathy"",""x"":79,""y"":196.8,""cx"":105,""cy"":214.2,""angle_rad"":-2.635,""angle_deg"":209},{""word"":""disease"",""x"":351.9,""y"":124.8,""cx"":381,""cy"":142.2,""angle_rad"":-1.423,""angle_deg"":278.5},{""word"":""broom"",""x"":612.2,""y"":239.8,""cx"":637,""cy"":257.2,""angle_rad"":-0.313,""angle_deg"":342.1},{""word"":""sad"",""x"":314.7,""y"":102.8,""cx"":331,""cy"":120.2,""angle_rad"":-1.653,""angle_deg"":265.3},{""word"":""key"",""x"":541.1,""y"":139.8,""cx"":557,""cy"":157.2,""angle_rad"":-0.75,""angle_deg"":317},{""word"":""heaven"",""x"":141,""y"":234.8,""cx"":169,""cy"":252.2,""angle_rad"":-2.646,""angle_deg"":208.4},{""word"":""obligation"",""x"":357,""y"":95.8,""cx"":392,""cy"":113.2,""angle_rad"":-1.395,""angle_deg"":280.1},{""word"":""data"",""x"":67.4,""y"":283.8,""cx"":86,""cy"":301.2,""angle_rad"":-2.959,""angle_deg"":190.5},{""word"":""loving heart"",""x"":125.8,""y"":182.8,""cx"":167,""cy"":200.2,""angle_rad"":-2.456,""angle_deg"":219.3},{""word"":""content"",""x"":115,""y"":202.8,""cx"":143,""cy"":220.2,""angle_rad"":-2.582,""angle_deg"":212.1},{""word"":""phenomenon"",""x"":31.1,""y"":387.8,""cx"":77,""cy"":405.2,""angle_rad"":2.942,""angle_deg"":168.6},{""word"":""cabinet"",""x"":560.4,""y"":144.8,""cx"":588,""cy"":162.2,""angle_rad"":-0.668,""angle_deg"":321.7},{""word"":""miracle"",""x"":121.4,""y"":138.8,""cx"":149,""cy"":156.2,""angle_rad"":-2.374,""angle_deg"":224},{""word"":""fear"",""x"":276.9,""y"":87.8,""cx"":294,""cy"":105.2,""angle_rad"":-1.796,""angle_deg"":257.1},{""word"":""knee"",""x"":601.8,""y"":418.8,""cx"":622,""cy"":436.2,""angle_rad"":0.307,""angle_deg"":17.6},{""word"":""comfortable"",""x"":81.4,""y"":428.8,""cx"":123,""cy"":446.2,""angle_rad"":2.741,""angle_deg"":157},{""word"":""debt"",""x"":381.4,""y"":29.8,""cx"":400,""cy"":47.2,""angle_rad"":-1.407,""angle_deg"":279.4},{""word"":""elephant"",""x"":252.1,""y"":639.8,""cx"":284,""cy"":657.2,""angle_rad"":1.782,""angle_deg"":102.1},{""word"":""effect"",""x"":119,""y"":463.8,""cx"":141,""cy"":481.2,""angle_rad"":2.581,""angle_deg"":147.9},{""word"":""discipline"",""x"":91.2,""y"":444.8,""cx"":125,""cy"":462.2,""angle_rad"":2.679,""angle_deg"":153.5},{""word"":""television"",""x"":499.8,""y"":81.8,""cx"":534,""cy"":99.2,""angle_rad"":-0.938,""angle_deg"":306.3},{""word"":""shoulder"",""x"":612.2,""y"":481.8,""cx"":644,""cy"":499.2,""angle_rad"":0.47,""angle_deg"":26.9},{""word"":""nose"",""x"":604.8,""y"":480.8,""cx"":625,""cy"":498.2,""angle_rad"":0.494,""angle_deg"":28.3},{""word"":""ax"",""x"":475.6,""y"":234.8,""cx"":488,""cy"":252.2,""angle_rad"":-0.616,""angle_deg"":324.7},{""word"":""scenery"",""x"":111.5,""y"":116.8,""cx"":141,""cy"":134.2,""angle_rad"":-2.34,""angle_deg"":225.9},{""word"":""panda"",""x"":285.5,""y"":602.8,""cx"":310,""cy"":620.2,""angle_rad"":1.718,""angle_deg"":98.4},{""word"":""fraud"",""x"":315.1,""y"":74.8,""cx"":336,""cy"":92.2,""angle_rad"":-1.625,""angle_deg"":266.9},{""word"":""table"",""x"":562.8,""y"":86.8,""cx"":583,""cy"":104.2,""angle_rad"":-0.812,""angle_deg"":313.5}],""n_words"":89,""words"":[""proud"",""refrigerator"",""rabbit"",""agreement"",""lips"",""scissors"",""giraffe"",""system"",""fault"",""friendship"",""method"",""ant"",""depressed"",""sofa"",""violence"",""chopsticks"",""concept"",""sparrow"",""chair"",""business"",""magic power"",""result"",""hostility"",""dispute"",""relationship"",""pencil"",""anger"",""team"",""washing machine"",""thigh"",""charity"",""finger"",""characteristic"",""cat"",""eye"",""bed"",""computer mouse"",""microwave"",""reason"",""hammer"",""spoon"",""fate"",""arm"",""rat"",""excited"",""ear"",""society"",""toothbrush"",""process"",""splendor"",""air conditioner"",""tortoise"",""status"",""trauma"",""death"",""happy"",""identity"",""marriage"",""error"",""ankle"",""tiger"",""apathy"",""disease"",""broom"",""sad"",""key"",""heaven"",""obligation"",""data"",""loving heart"",""content"",""phenomenon"",""cabinet"",""miracle"",""fear"",""knee"",""comfortable"",""debt"",""elephant"",""effect"",""discipline"",""television"",""shoulder"",""nose"",""ax"",""scenery"",""panda"",""fraud"",""table""],""distance_matrix"":[[0,0.8803733395438601,0.3253865088990406,0.849259941438583,0.7598970341873731,0.6099339185652299,0.35129255556720285,0.2839482810108872,0.6792730732082126,0.5065541775395123,0.26036421937435567,0.3021274466259278,0.7512915676941959,0.8812460980661636,0.7206181796425807,0.8891036898686822,0.2064592796497593,0.28879126020280776,0.8907963357065664,0.25839520049168213,0.1791327716260615,0.25799633326357196,0.7143318981699949,0.3097459549880038,0.33423851299770385,0.7791838263809583,0.679325222340322,0.2430049560343148,0.7707283061743745,0.6281780404801875,0.2609915484625606,0.6492630661219967,0.08139522742155993,0.30807676979376597,0.643765674487822,0.7389955566007226,0.7070416264896104,0.7763118308502037,0.21313238862781284,0.6916644453502202,0.7806633690621484,0.6989281726966207,0.7811958176469116,0.2754915227718866,0.378253115370714,0.6813433419188295,0.3208391211853465,0.7758577562416907,0.24765720335153768,0.4013679230698462,0.858663250871667,0.30555048980523164,0.15841666337843344,0.6774374188560145,0.7042158354963388,0.46649634379622923,0.43103323150969786,0.5379472097464836,0.2376175970891762,0.6908816896205222,0.41341067878272075,0.38220709534339814,0.6261046268607654,0.8309120982812104,0.6103558462296216,0.8000205959750349,0.33625059333688245,0.6696474590826551,0.2571431101658759,0.41027843787648416,0.37577237327236296,0.11370404935985355,0.8333326765493708,0.4702618769699513,0.6035912052360364,0.7461353595650364,0.04324131477858974,0.7554451009573243,0.36038026352335234,0.036935788470438435,0.02359335481680433,0.8272160556836156,0.7767269119467152,0.7487551752260403,0.6383255038353409,0.5013263147808286,0.3532548174404091,0.6494977306177544,0.8775404063308584],[0.8803733395438601,0,0.8180484769321379,0.16578000655446995,0.3947683693100025,0.6603555630264701,0.8541431303415878,0.9008726411709063,0.6239779543729735,0.7642964876974981,0.8831534075037141,0.827427811727361,0.4697518121066818,0.17566554484561558,0.48418623848272785,0.03300759344249122,0.9638695750008028,0.8468833700891027,0.16772221240888982,0.6378983930463846,0.7204423091508775,0.7067682123176222,0.4286875517728706,0.5698266585932433,0.5789098170960318,0.0969686977921131,0.364150783031411,0.6370702674697364,0.12461625517874778,0.44672195136646337,0.6147338358064512,0.37758637207026896,0.8234069342970594,0.8120159052695063,0.3743377382134513,0.1441083973915116,0.17020617935853485,0.12428136959995116,0.7127215885812624,0.184059722165056,0.12370163837691765,0.5891197372007343,0.42325859454496584,0.9040456295673301,0.5809228524129748,0.33569530121354857,0.653075028293612,0.1390602759507919,0.7508052866751391,0.6322588027729766,0.1173465420182914,0.9155918039417732,0.9866223302057516,0.5745647481680215,0.5371498418927273,0.8163809386540096,0.8094443343614366,0.7929430745153672,0.825546101160999,0.4125825493312134,0.8350527920185865,0.7996148490693906,0.4057867954701089,0.06928863719595854,0.4851073682047438,0.1545802253653632,0.7082934331503776,0.4028426683050961,0.838437626734614,0.7085480772384095,0.7438862183442854,0.888513349760833,0.11209497494098179,0.7389839291550144,0.5434627869691343,0.33200098179801263,0.8476052806895974,0.43580981655928547,0.8477549149565533,0.8464567873494827,0.8548388232450554,0.2325318591876327,0.42188739118048685,0.42210525627058326,0.24462317401565478,0.7547010489563223,0.7814708435285033,0.4907749125286921,0.18007719058529417],[0.3253865088990406,0.8180484769321379,0,0.7258553724620437,0.5575543312899681,0.3190209773908891,0.038391770937187965,0.5971385464634879,0.8647214842157773,0.756532127086523,0.570852524970049,0.020474402619653137,0.8749293915764959,0.8857160281777111,0.8518040878051967,0.8125649586855558,0.5361015122736528,0.04260516749679602,0.8912392054181194,0.40872041263135156,0.22437119911502393,0.48310606467793044,0.8243318463637285,0.3904458080309394,0.4684245547551159,0.7214447957686293,0.7614448663506975,0.3626325064741301,0.6901991659966232,0.4273410873677917,0.3335896589192754,0.47786606960725975,0.24763578350071158,0.01377290711761633,0.4761246980471512,0.6700768985565169,0.6698830436923922,0.7525915481414251,0.4305467291409444,0.6468752775537022,0.7583063973797406,0.8702536611239631,0.566329279955145,0.10030681119127376,0.5359935687896908,0.5209752495044843,0.5186898739674114,0.7610285586967794,0.5015719096928916,0.5975209789042161,0.8431230952005495,0.09861461229886932,0.4846525424308469,0.8453423469585348,0.8563051042341577,0.7374387683612168,0.7030270741840537,0.7942862157340826,0.5296935156501699,0.491330913846909,0.08401823303307644,0.6548293591649192,0.7237231692864275,0.7512815591800497,0.744532816680864,0.7974550349464917,0.5703433450633594,0.7687952934083184,0.5531034635453033,0.6447617017568777,0.626736609862748,0.4376341687487293,0.8153917046937237,0.714127423436756,0.7631008006909151,0.5712805638029714,0.34762987622203617,0.8661599544982488,0.03984869212644307,0.2917341874646641,0.32819423753632,0.8568008379425655,0.5626489022046108,0.536888448706679,0.62583039939679,0.7484466748435282,0.04064314803002041,0.7862355178676748,0.8840210032899924],[0.849259941438583,0.16578000655446995,0.7258553724620437,0,0.2335549709728152,0.5198698683797232,0.757190691838651,0.9240621109427083,0.7335792860930918,0.8357064130290817,0.9028435114222432,0.7393718969842713,0.5983926632338914,0.339905624408399,0.6059907185465282,0.13375017752940557,0.9670348436652106,0.7610511439001959,0.3338867058936389,0.636053848840454,0.6738085620477229,0.721871884192324,0.5495614981250686,0.5594088731983456,0.5928292636400204,0.1596251389163233,0.47324072892702873,0.6226957338578252,0.11462283602097513,0.3135144029295455,0.5905414964856879,0.2493266414942884,0.7806674979589459,0.723165011134145,0.24905413497530662,0.14990256188745077,0.21912453649993027,0.23822802746996297,0.7151717394442606,0.2121574791342627,0.24176677513333023,0.7037292796965433,0.25837876431561313,0.8211758515510004,0.6139515787631391,0.20452538787357183,0.6792872960931309,0.25928123402234093,0.7675099954336775,0.6791656018496536,0.2779843761791046,0.8278251960027535,0.9762413176441314,0.6853336781086667,0.6543473427378261,0.8780989047248646,0.8647189977522275,0.8690607169142158,0.8423463232238613,0.265706087328919,0.7272610845475606,0.8456945001892637,0.5004540233725572,0.10588424800697974,0.5800861236696945,0.29309856717988675,0.7436768201866634,0.5111175705179166,0.8589974579731329,0.76096503424018,0.7891655597071412,0.879878597782608,0.26302627107161064,0.8039452404997953,0.6381826046525793,0.17762694035844515,0.8239667011969305,0.566115337731951,0.7491739596178809,0.8112942980264615,0.8265661607275796,0.38294397608511355,0.25760510209202997,0.26214862379488707,0.2866916379385027,0.825421109763387,0.6849278467139176,0.5960545653279504,0.3434664060485544],[0.7598970341873731,0.3947683693100025,0.5575543312899681,0.2335549709728152,0,0.29563602180370374,0.5805517363163122,0.9062896895071311,0.8469836367909359,0.8902819941150873,0.8814229862092572,0.5761338158098437,0.7461396783455407,0.5508296343862176,0.7442139171869754,0.36795566726879153,0.918936588290605,0.5996978323332155,0.5479111127932731,0.6072072610588982,0.5761189277509622,0.7075942099747391,0.6910246393143294,0.5289673701835144,0.591496366329585,0.3458304420118736,0.6083349977160726,0.5777097915908422,0.2897840699228879,0.1297485410411738,0.5356636078617403,0.11494861804621176,0.6794769063037249,0.5597780929101894,0.1225852273478316,0.3031544940740969,0.36147121719745723,0.42184684586174115,0.6838486463970962,0.3401940966816249,0.4272284839617558,0.8258051379957182,0.031244188120762684,0.6607942474693063,0.6358429466208865,0.10770752581757942,0.6845437322046463,0.4418152031625642,0.751448826946499,0.7125588517763461,0.489105341002837,0.6604286971944132,0.9087696553250154,0.8033796292967084,0.7830970299576137,0.9166963503300828,0.8951635759117857,0.9282168687811012,0.8207726472420142,0.06484264651767672,0.537245587984462,0.8645946655062914,0.6152135269345081,0.3232707040581964,0.686221287610401,0.48321241733269094,0.7554607424141618,0.6408755367898135,0.8415471247799441,0.7946568065402843,0.8109127137848687,0.8202172643520971,0.46755042386670814,0.8516816669063376,0.7385884877684228,0.06203291571443688,0.7468461843043647,0.7182896560824314,0.5706891104219672,0.718718607355228,0.7427099406089117,0.5741204638635332,0.02762939524397372,0.024311344401157543,0.39261670880152605,0.8796830679744511,0.5129333327841965,0.713752903434348,0.5530336974467356],[0.6099339185652299,0.6603555630264701,0.3190209773908891,0.5198698683797232,0.29563602180370374,0,0.32613233883911025,0.8348725707970858,0.9435490437161027,0.9114635548946954,0.8078283133652526,0.342941299739219,0.8923821730958986,0.7850155645374853,0.8797380651024153,0.6413609128008746,0.8071136353006629,0.3662082288366555,0.785819960511101,0.56561329999449,0.4451820280634613,0.665918428306725,0.8358710247669578,0.5049453208806625,0.5886849854266182,0.584828384501329,0.7567351506554647,0.5214397620436206,0.5359935687896908,0.20927177827544752,0.47688844523510227,0.2785612310011008,0.5239647944699386,0.32880092124033217,0.2825329064325272,0.53261443590402,0.565908892672201,0.6449214568408087,0.6239607606769941,0.5405960202759286,0.6509550620837,0.9346251422759712,0.28879126020280776,0.42181643434299637,0.6523334892280932,0.3200678203803228,0.6715873789332165,0.6607942474693064,0.7007370140755842,0.7297878237806774,0.7286021957307616,0.4115892158006913,0.7725869848314421,0.9095857520341667,0.9038136613602665,0.9155248547174741,0.8859393605307035,0.9514587042869679,0.7537710262826768,0.24956484507285984,0.26726871034700095,0.84411821065491,0.7410043757555543,0.5864835760865864,0.7922598048744293,0.7031125973172752,0.7396115512773418,0.7790790229423983,0.7774278982450407,0.8007965879786001,0.8002059354119012,0.7032591843647706,0.7027154381850936,0.8684432079704013,0.8313776411558874,0.3385383685085906,0.6153913543831329,0.8722748605640993,0.3145691466712232,0.5696869465259727,0.6025401051648742,0.7849922960033955,0.2865654761295435,0.26801891818967655,0.5587354186647079,0.9015372305533564,0.2755686753164041,0.8293182366400221,0.7855368736903381],[0.35129255556720285,0.8541431303415878,0.038391770937187965,0.757190691838651,0.5805517363163122,0.32613233883911025,0,0.6290979487021673,0.9071767585519792,0.7960092222615944,0.6031556905894101,0.049750150214893735,0.9179530532785352,0.9255970492641115,0.8948452096560617,0.8475837210452876,0.5623687657194664,0.057866826723132626,0.9309009819447313,0.450164151315951,0.26439161232948794,0.5222568018068121,0.8673010890366435,0.4333077413907947,0.5108455980480053,0.758483455895684,0.8041577438470446,0.40440194290822573,0.7257665932759526,0.45299752400388393,0.3761500561893119,0.5067507678689642,0.27794995692095603,0.05423438836424906,0.5055319577985887,0.7066998423543961,0.7086071780426298,0.7915800212043385,0.46936890327483693,0.6853086143611123,0.7973404900900353,0.9129901210214988,0.5870756813942242,0.09486217265749172,0.5782422050983349,0.5505260130993268,0.5595156892107432,0.8004570156993046,0.5391331189113255,0.6389219750836462,0.8821289671139606,0.08082810202093414,0.5069599584362545,0.8881066591622068,0.8992634367946859,0.7752814764728038,0.7406332104089184,0.833465515258348,0.5641900369450976,0.5158735519750979,0.06333313784815889,0.6921423631963687,0.7666696898680921,0.7864555108151312,0.7875463731561283,0.8373369620410038,0.6098143197207904,0.811714099477351,0.5873459522067767,0.6846754527202294,0.6655443840498335,0.4662967198744698,0.854388511314661,0.7538223282908834,0.8058944361396718,0.598184721410922,0.37736009329353476,0.9091091927801698,0.007204230325736433,0.3203073855111114,0.35679772110822294,0.897869346273644,0.5835876091935776,0.5586049486698332,0.6661488775478677,0.7880755620823553,0.0681543482371936,0.8292547298749406,0.9240050833346418],[0.2839482810108872,0.9008726411709063,0.5971385464634879,0.9240621109427083,0.9062896895071311,0.8348725707970858,0.6290979487021673,0,0.49290830752848397,0.2725438141187845,0.022460839623865372,0.5764519568540292,0.618465633390562,0.8434557796889854,0.5846651773178311,0.9206797883110278,0.11858063603343512,0.5673089820156269,0.855495000836085,0.2946517901587484,0.38960165318139406,0.19832067798085767,0.6006681665866416,0.37352764984208126,0.326590288163734,0.8086593173218647,0.5993668836174816,0.32571383459337,0.8203535249499426,0.7895684796847757,0.3698998878399949,0.7869362762248254,0.34663132852638073,0.578855639755938,0.7796056564036259,0.7837594518826569,0.7305218059033838,0.7771417726617398,0.2181952469304223,0.7242912792838798,0.7796690491439858,0.5247513972696154,0.9350059484528697,0.5621781175556798,0.31538409771020814,0.8062357301030694,0.24347149245482552,0.7690034811397937,0.15275056724873182,0.27629287358281335,0.8412788539347652,0.5924488040986531,0.19518123742164936,0.5099931169634346,0.5493118149197013,0.2118581598380255,0.1814296625686536,0.2913254729773949,0.08090393595252662,0.8430363973421444,0.6855419852820146,0.14506439672018423,0.5415763665494369,0.8718433718999663,0.4913243762782309,0.7788666150972665,0.1920191613576847,0.5746785645005145,0.060855499952669014,0.22529903136919965,0.17943833108054974,0.1664698658859976,0.8212373621701694,0.2520905289617804,0.4584816133092646,0.8732849464192437,0.2485808111228489,0.6348245772164474,0.6367821929611205,0.30644119065844794,0.2708542161372706,0.7734611830722444,0.9303566840551203,0.9034709537809517,0.6539864194245484,0.27198176142376607,0.6158269904345173,0.5198018639454856,0.8383876276963345],[0.6792730732082126,0.6239779543729735,0.8647214842157773,0.7335792860930918,0.8469836367909359,0.9435490437161027,0.9071767585519792,0.49290830752848397,0,0.22647579722726902,0.4937764567925189,0.8554623295070591,0.16884720198657915,0.4852728552632794,0.14235428957858823,0.6576161777976925,0.6096612695998803,0.8600730522248359,0.4985245042401049,0.4567818641882444,0.6446152250650888,0.4172631840084168,0.19307151701996525,0.47155564372951503,0.391683103833511,0.5721431839967338,0.2574072052829751,0.499908075441905,0.6147460507338663,0.7886411852968824,0.5265124161363457,0.7448083173365015,0.6867936367546371,0.8483139089528128,0.7366066583764308,0.5817104638169345,0.5114297166281986,0.5018109833059541,0.4664068676720119,0.5235720768880188,0.5003769841492937,0.036935788470438435,0.8827479143916718,0.888011011552491,0.32474072570906026,0.7356363845989846,0.358968128411941,0.4832367865508689,0.42975624476622143,0.27570364117929813,0.5165541751000635,0.9149667549709936,0.6753187005482911,0.04477402494631923,0.08708572565130077,0.296182623355361,0.3150056236967125,0.22943107789037107,0.46863869610858694,0.8102843006961792,0.9357785912103365,0.3433390861917385,0.23075711458868342,0.6365867003230398,0.15611368527182737,0.46550427328442245,0.34053243043036946,0.2187619928192235,0.4622585422130915,0.2732720055265208,0.31672878911100977,0.6015834644414098,0.5105808242141381,0.23668786068349257,0.10780368063781161,0.7875463731561283,0.6313859509015977,0.20035530373024707,0.9090062801195099,0.6729860416610975,0.6528235577808233,0.40727983078838714,0.8788002014702997,0.8601067992213106,0.45604812901378844,0.2231408636378522,0.856997797193526,0.13296701405239164,0.4792148960365628],[0.5065541775395123,0.7642964876974981,0.756532127086523,0.8357064130290817,0.8902819941150873,0.9114635548946954,0.7960092222615944,0.2725438141187845,0.22647579722726902,0,0.278988339022707,0.7417461527330248,0.3792679510717188,0.6609225486107934,0.34644667071289187,0.7924008449849527,0.39446518124748786,0.7404170954505055,0.674057034767117,0.3511710736808565,0.5275308932933894,0.269217344153537,0.3792003788312742,0.4021318708674848,0.31821939092511103,0.6896311810668511,0.4085870426539869,0.3986033155974211,0.7188127333487302,0.8012071047611232,0.4386008351582378,0.7748989019272295,0.537111937723422,0.7385463143257779,0.7666584796093387,0.6820614249316354,0.615976778548265,0.6354175564806726,0.3224291415525572,0.6193011292977457,0.6359796191776749,0.26372793334273276,0.9241109889626339,0.7547010489563223,0.2574690640857212,0.7791066041533743,0.23929371274530628,0.6212382238494282,0.2592198000466282,0.17851422274643472,0.6764860012873681,0.7840842877445986,0.46686553986318163,0.25509142964537806,0.2999210519777858,0.0650910548435889,0.08713284177495759,0.035345955063990936,0.2701471509259739,0.839214154219381,0.8382901851522455,0.12649229425383704,0.35746393952051186,0.7566726876314945,0.2838958448043496,0.6170677477350693,0.18155740429180975,0.37403246348698116,0.2568828810698353,0.10851268698737868,0.12819550399108068,0.4085661179674128,0.6630367674023597,0.038766809671676776,0.23199352569256337,0.8409785451759029,0.46028674496537875,0.4036323155218533,0.8005496405231791,0.5114862598138425,0.48369735741219555,0.5837511152668797,0.91967589139199,0.896324358160692,0.5444734451102516,0.005952813386377976,0.7603436282719553,0.2961071651782845,0.6551341264670019],[0.26036421937435567,0.8831534075037141,0.570852524970049,0.9028435114222432,0.8814229862092572,0.8078283133652526,0.6031556905894101,0.022460839623865372,0.4937764567925189,0.278988339022707,0,0.5503390866698332,0.6133659850666737,0.8301174900180239,0.5796774834066344,0.9022418548052257,0.11161255826577716,0.5415031489927002,0.8419940539544157,0.27030443366328066,0.36251772031047175,0.17634161219608857,0.5932591943615328,0.34937819000221265,0.30557574991839365,0.7899562332243277,0.5884385605588095,0.3001055283199806,0.8003549818199956,0.763929539346834,0.3440279209849293,0.7621795559467783,0.3208889268752015,0.5525450901660132,0.7549059849359483,0.7639281330775471,0.7118728417772068,0.7603718849479643,0.19296215811885575,0.7049854063249007,0.7630501187228049,0.5241630877740225,0.9098895323512138,0.5374370294344293,0.29851251119733135,0.7820755620396114,0.22548227031217957,0.7527842123342794,0.13068618423737988,0.26495345268296455,0.8262267136285105,0.5677321176052634,0.18366411121319606,0.5083523822519982,0.5463695625072523,0.22217561625741394,0.1897028293534374,0.30084231969905323,0.05650343593605981,0.8178290496681185,0.6591810642387035,0.14860334057617283,0.530574696537761,0.8526025495307514,0.4834693405817165,0.7638353136148944,0.17948529522243015,0.5650539074263444,0.040066761757448846,0.22100995364535717,0.1752094153422364,0.14414472141189325,0.8056743853324098,0.2548374735787086,0.4533658021362267,0.8491839936082307,0.22354381853391586,0.6284444222368322,0.6107283083663817,0.28139027438692643,0.24614477681825758,0.7612021653273104,0.9052402202064304,0.8782703026478296,0.6354445737833541,0.27742933244741186,0.5891452206186657,0.5134905882517543,0.8251450203970359],[0.3021274466259278,0.827427811727361,0.020474402619653137,0.7393718969842713,0.5761338158098437,0.342941299739219,0.049750150214893735,0.5764519568540292,0.8554623295070591,0.7417461527330248,0.5503390866698332,0,0.870469823963579,0.890379814217261,0.8466497917330162,0.8229891460286092,0.513089925795875,0.019284689873896928,0.8962343820164037,0.39708341583699547,0.21049099908815103,0.467953102232731,0.8206416943905265,0.383329303195329,0.45923771175199846,0.7299158453945641,0.7594784687963674,0.35174774384725904,0.7002189234850204,0.44484070947919285,0.3250850822781953,0.4933946575532394,0.2259139493215348,0.011788612609203358,0.4913243762782309,0.6790517902331633,0.6763828512554928,0.7586533934312575,0.4150208310543064,0.6537796196966991,0.7643007044766835,0.8621117571279449,0.5858927073377337,0.08001498044121086,0.5262132107491565,0.5359935687896908,0.5058602223617538,0.7664636753478047,0.48474972518367904,0.5857023327137032,0.8490890493193095,0.08401823303307644,0.46060279409728183,0.8373446639924995,0.849575052776613,0.7208893539354567,0.6862541401372547,0.7791424582766441,0.5104717292815099,0.5092680534394837,0.10663462804912548,0.6377873650248232,0.7203081419598545,0.7616141471218896,0.7385070472450064,0.8021789007034227,0.5555668140711865,0.7655857448462737,0.5337217561897987,0.6305459318095371,0.6111795287918392,0.4154043936755829,0.8213904644566693,0.699617583694125,0.7552844018963317,0.5878277507916904,0.32576944771359795,0.8626428050435915,0.055899530608867695,0.26934360456316697,0.30585695641128063,0.8594115951836786,0.5821361080219416,0.5560759192840448,0.6300131175928736,0.7338500917532391,0.06299844293564998,0.7802875485392168,0.8885242407125001],[0.7512915676941959,0.4697518121066818,0.8749293915764959,0.5983926632338914,0.7461396783455407,0.8923821730958986,0.9179530532785352,0.618465633390562,0.16884720198657915,0.3792679510717188,0.6133659850666737,0.870469823963579,0,0.3170917992484708,0.029198498373351665,0.5054789921185088,0.7247537468048668,0.8796219560427485,0.3301369209508746,0.4987392604877405,0.6746682727271337,0.4941037902401281,0.05210332329938941,0.4854256053615918,0.4230823807783838,0.4341183086014924,0.13435020649482549,0.5327592607053468,0.48342505311867606,0.7119814409421309,0.5462871730203651,0.6579131381194804,0.7394241917770479,0.8605141590586148,0.650194617540552,0.454866541253921,0.38674013825038267,0.3570368643814329,0.533804061046033,0.4044019429082257,0.3543403283263704,0.12787781952267271,0.781894195303501,0.9174925391936092,0.3690765651759181,0.6397275934492466,0.42812099854290225,0.3366435105771429,0.5200182110955268,0.3549630133681932,0.35501410384982324,0.94141279076305,0.7807005283518642,0.12447403493207658,0.07815626847547522,0.4472938847399654,0.45827386373179396,0.3916142392352301,0.5754970103345313,0.7209385120467278,0.9345860174894465,0.4749452471843911,0.149755632752994,0.493861020455972,0.13631908227494463,0.31097343140750183,0.43722342896124167,0.10871308373827196,0.5752081693637048,0.388525527693387,0.43442611641344553,0.6952733037608394,0.3533997423709987,0.37609044695204835,0.15539269557642083,0.6822140782148352,0.7047660494311693,0.029547945885361138,0.9175487975171177,0.7360158910889468,0.7233001365376024,0.2407955130741194,0.7784181626887148,0.7636032158954869,0.3497588407010604,0.3732181452587826,0.8584929682969975,0.09799522233375092,0.3110453362305117],[0.8812460980661636,0.17566554484561558,0.8857160281777111,0.339905624408399,0.5508296343862176,0.7850155645374853,0.9255970492641115,0.8434557796889854,0.4852728552632794,0.6609225486107934,0.8301174900180239,0.890379814217261,0.3170917992484708,0,0.33875560684014183,0.2131125361437526,0.9254006720490557,0.9067700947659252,0.0086643828836067,0.6214402353042101,0.7453042517134265,0.6673401494468945,0.2885554346616653,0.5683327539191083,0.5505557013487538,0.20137557387791577,0.24831177387314163,0.6339315370713225,0.2566472123796985,0.5738496191872623,0.6236305504694402,0.5059681858502314,0.8389566723456857,0.8763892254205885,0.5006572649293843,0.2500490711378096,0.21805940155892548,0.1358582994666274,0.6864856279464895,0.24321435200655747,0.12979678438180076,0.44644170286151597,0.5827638762463057,0.9588178430782968,0.5313899106220883,0.47047120926211555,0.6052114249051643,0.12234715119194443,0.7070780737766686,0.5630926448816975,0.05776300790621353,0.9752369869979672,0.9617167283336551,0.43682210008505645,0.39405876465013184,0.7212840144996149,0.7214849855233325,0.6834450806592222,0.7779970736234724,0.5540502568515657,0.9187469880739495,0.7219090751298628,0.30307020850873484,0.23061014627365625,0.37238200213162054,0.08361505759195904,0.6468138945846459,0.28229193744760467,0.78631204409372,0.6284580798184903,0.6696859274978071,0.8652906972108112,0.07916818744424309,0.6436739897874039,0.4261359579564727,0.48471880549210816,0.8419646915656663,0.28320955023333544,0.9211608985917156,0.853018514422321,0.8537755569067972,0.07377200610089867,0.580662541877273,0.5758564630424164,0.25592233640852236,0.6524700215534613,0.8551104057461719,0.36487979690014527,0.0014126641010793967],[0.7206181796425807,0.48418623848272785,0.8518040878051967,0.6059907185465282,0.7442139171869754,0.8797380651024153,0.8948452096560617,0.5846651773178311,0.14235428957858823,0.34644667071289187,0.5796774834066344,0.8466497917330162,0.029198498373351665,0.33875560684014183,0,0.5191110161238376,0.691273177538313,0.8551933721785709,0.35196602784772757,0.4701435178926484,0.6482722503013943,0.46233261195965963,0.051836070693865005,0.4601315466369483,0.39511256063576644,0.44206206256915237,0.13179176170316304,0.5053857591623582,0.48930668773911346,0.7041380700092077,0.5206132207079553,0.652228191912963,0.7106167219543801,0.8370673493393521,0.6443621420048531,0.45914159186947046,0.38986474665954224,0.36709315111115554,0.5029301398306322,0.40593160495971864,0.3648856466109752,0.10304132336100152,0.7800727131434586,0.8918229279520037,0.33924310560895876,0.6361752970144839,0.39660962339747413,0.34730757829223474,0.48744767612276285,0.3223465188461558,0.372665696626532,0.9161870854754526,0.7476928283621442,0.09533892925036189,0.050715139863092173,0.41416749876129183,0.42471101464587907,0.35979945877811975,0.54219535526838,0.7160780887090438,0.9133021942352236,0.441110176427228,0.1340933689770803,0.5037662961185924,0.10675111515963853,0.3249572204069087,0.4040847463727935,0.09924071326605255,0.5416792503136452,0.35473452004632,0.40064320564616346,0.6628441063969168,0.3688306614252886,0.34252126548869216,0.12166446105780945,0.6812535286831978,0.6738786533093603,0.054326093371415946,0.8947646992077236,0.7061435223917578,0.6927067529256314,0.261125783478122,0.7764668202615846,0.76063179741427,0.34694809829721707,0.34020976760898886,0.8366152332945059,0.06647218725570037,0.3326937447018037],[0.8891036898686822,0.03300759344249122,0.8125649586855558,0.13375017752940557,0.36795566726879153,0.6413609128008746,0.8475837210452876,0.9206797883110278,0.6576161777976925,0.7924008449849527,0.9022418548052257,0.8229891460286092,0.5054789921185088,0.2131125361437526,0.5191110161238376,0,0.9799311988068776,0.843046597550417,0.20489708918661415,0.6517179189695737,0.725172975102664,0.7243446558939889,0.46331985818780913,0.5814269903195188,0.595556411094697,0.10810123946045112,0.39673081672666183,0.6482904591354414,0.11865954813187371,0.4287997761357402,0.6237423598117721,0.36027365440174924,0.8294206149155582,0.8073332960650607,0.35772948742029254,0.14601433011278744,0.18582696659771097,0.15349727316508105,0.7277984139454509,0.19548929705398155,0.15389998649623018,0.6233586847569281,0.3949847913845488,0.9010910429965847,0.6013427306200783,0.3170716427642451,0.6725712149017763,0.17036681838223394,0.768879134132794,0.6555762802828262,0.15498697735579983,0.9114765325775014,1,0.6082485937159942,0.5716107623028748,0.8429739183880709,0.8348983190544712,0.8218940623806267,0.8439029773140598,0.39057367729796777,0.8256710737431652,0.8233991027061593,0.43627580464973914,0.0567679770282313,0.5160998333509679,0.18987514960416718,0.7297878237806774,0.4355250760364099,0.8575633343373085,0.7331824129565466,0.7673490077210752,0.901984390658358,0.1487725092800217,0.7659252551067598,0.5746617733330887,0.3071179468071435,0.8578215272629771,0.4716503929997239,0.8407676263453188,0.8542035383165089,0.8640946703317449,0.26984412793562124,0.39388523409375464,0.3958708992406288,0.26214862379488707,0.7826647153896805,0.7747879756517192,0.5234022179303891,0.21759787884119913],[0.2064592796497593,0.9638695750008028,0.5361015122736528,0.9670348436652106,0.918936588290605,0.8071136353006629,0.5623687657194664,0.11858063603343512,0.6096612695998803,0.39446518124748786,0.11161255826577716,0.513089925795875,0.7247537468048668,0.9254006720490557,0.691273177538313,0.9799311988068776,0,0.4998802269758503,0.9367894264025822,0.32657315708266993,0.35845353371203303,0.25450403923539966,0.7016511746580154,0.40316944438764607,0.380336966207096,0.8671833236451486,0.6905894836295795,0.3424434255872306,0.8716065792981086,0.7938640196978384,0.380706669563366,0.8018948553006974,0.28604540941854123,0.5185824697913725,0.7952529078350818,0.8362567072608064,0.7899045436856308,0.845339803805419,0.2482006591795972,0.7802228286800279,0.8485368972778135,0.639427282756249,0.9445698225013176,0.4835114099500285,0.3893630729740429,0.8270458323015526,0.3155866676470057,0.8397160820413885,0.2136825749774626,0.3696920614836671,0.9165637808287066,0.5130502600460227,0.07474452026023297,0.6230316016939241,0.6600320510087492,0.3350404798798821,0.3040661127186818,0.4144383814622409,0.14592822016604695,0.8523074702611628,0.6243475051573465,0.2647007695526125,0.632923676513911,0.9270633388803959,0.5916626882958486,0.8545457699506116,0.28445716636774426,0.6698830436923922,0.14505717725024486,0.33490681763954044,0.289585775974489,0.09924071326605255,0.8944906693461364,0.3710984116220542,0.5652037646964058,0.8940530098936824,0.18822908973274666,0.7381899258887594,0.5714888360328934,0.24046061506474345,0.20453055491486044,0.8595266675596395,0.9399561892035148,0.9122843264193677,0.7146009343983732,0.39327184887671157,0.5621628629323853,0.6236941982266652,0.9207043169723911],[0.28879126020280776,0.8468833700891027,0.04260516749679602,0.7610511439001959,0.5996978323332155,0.3662082288366555,0.057866826723132626,0.5673089820156269,0.8600730522248359,0.7404170954505055,0.5415031489927002,0.019284689873896928,0.8796219560427485,0.9067700947659252,0.8551933721785709,0.843046597550417,0.4998802269758503,0,0.9128523039755781,0.39993856200367545,0.21197793718575114,0.4665903901212585,0.8305084178766703,0.3907903451825352,0.4644599956531554,0.7488713681959107,0.7708662936966786,0.35557562090344286,0.7200978967569543,0.46814516873049317,0.3314515318278712,0.5160168057365353,0.2160312772463069,0.03534595506399096,0.5138200678299121,0.6983364912255967,0.6941312003996432,0.7760626762629627,0.4133408687372669,0.6718047125540971,0.7816619298561385,0.8678277395851433,0.6096595101814245,0.056556435625623354,0.5306877706221912,0.5583976694800161,0.5071183792113414,0.7834481966401567,0.4812589200886555,0.5879299001316357,0.8663883010047173,0.06424908736777954,0.44507869837168357,0.8432199823160221,0.856657794719689,0.7174145238201057,0.6825287202099338,0.7773518847520552,0.5036472332016925,0.5326788073014355,0.12218534500836273,0.6337690319228682,0.7304982827783475,0.7816426858542671,0.7463411938122004,0.8186552105469772,0.5544834263525668,0.7759131453362974,0.5266263548170621,0.6300131175928737,0.6090680600126689,0.40386520801343334,0.8387247432933486,0.6986577515028697,0.7614053621216021,0.610789778077726,0.3151408444074104,0.8726309869502559,0.0671527917422035,0.25793871476435115,0.2944061296514089,0.8743393688408334,0.6058898206799896,0.5797755091527228,0.6462346190559239,0.7327530810237878,0.08669609034095152,0.7881560005924285,0.9048029800513498],[0.8907963357065664,0.16772221240888982,0.8912392054181194,0.3338867058936389,0.5479111127932731,0.785819960511101,0.9309009819447313,0.855495000836085,0.4985245042401049,0.674057034767117,0.8419940539544157,0.8962343820164037,0.3301369209508746,0.0086643828836067,0.35196602784772757,0.20489708918661415,0.9367894264025822,0.9128523039755781,0,0.6315031932177773,0.7533604852209567,0.678528329003797,0.30185604221260204,0.5775079223308683,0.5610486420107756,0.1997639631954243,0.26131684972272723,0.6433404815213737,0.25432046735305236,0.5740214801642608,0.6323674009879173,0.5058199948319497,0.847675028743678,0.8821289671139606,0.5006786540223266,0.24961585966372074,0.22114402386622745,0.1380867807125334,0.6971192893901743,0.24607581338578377,0.13204501690534282,0.4596470177043139,0.579464729460204,0.9652980656712431,0.5427860039544445,0.469596862441777,0.6166625554206364,0.12620351741240193,0.7184914592810254,0.5752827227413295,0.05423438836424904,0.9814098617671,0.972562942563704,0.45009760668865595,0.40727983078838714,0.7342934131255202,0.7343416795915624,0.6966694218434776,0.7896297165125512,0.552771996809252,0.9231492485860681,0.7345040073014388,0.31585656173735344,0.22539771662875757,0.38551209908606,0.08974526441348808,0.6588341736725025,0.29545960252836895,0.79812311192538,0.6410546662756565,0.6821432639005819,0.8759867543455075,0.0785209380011332,0.6566542217795672,0.4393707057036481,0.48203903913469265,0.8518040878051967,0.2962939794177662,0.9263206145573829,0.8622414326438033,0.8633964344830182,0.08708572565130077,0.5774554712751447,0.573266405751342,0.262355150455814,0.6655830879636124,0.8601717897263765,0.37817124763001614,0.014688851319569903],[0.25839520049168213,0.6378983930463846,0.40872041263135156,0.636053848840454,0.6072072610588982,0.56561329999449,0.450164151315951,0.2946517901587484,0.4567818641882444,0.3511710736808565,0.27030443366328066,0.39708341583699547,0.4987392604877405,0.6214402353042101,0.4701435178926484,0.6517179189695737,0.32657315708266993,0.39993856200367545,0.6315031932177773,0,0.18354354281053312,0.09853084511951109,0.4573226274091074,0.07451616588191709,0.07221640367784253,0.5392285158604115,0.4171607021829653,0.04285609844962281,0.5409606375106867,0.49314502827794304,0.08445598026150217,0.4877550721245664,0.23606005459112744,0.39146146710887714,0.4803772794262764,0.5060211007921557,0.4630772859268737,0.5249085776196503,0.07479895556407115,0.4515806681669083,0.5287298302451291,0.467415358222266,0.6363591122704289,0.4266349542004435,0.1291521096270188,0.5071226030940447,0.10756313909670406,0.5220434263037855,0.14015416624681312,0.1841513396401586,0.6029938485048707,0.4535451124558944,0.34408371282190564,0.4435162476256227,0.46228400501375794,0.34645590591010983,0.31593748565712243,0.3905244491096773,0.20930714256950864,0.5446840107915252,0.4863746770079393,0.2739788991108017,0.3652539918966503,0.5973755754755589,0.3587451277023676,0.5427623112658427,0.17036681838223394,0.40967106146659554,0.22970795427026663,0.23801878278107394,0.23089481410071167,0.24597233265589535,0.5787833954766552,0.30782782802623193,0.3634203252508358,0.5742381017158918,0.21654493810952954,0.49921783727019936,0.45321238891363586,0.23619023452612076,0.2303067337881692,0.5649988866376866,0.6317121368174597,0.6050554466504888,0.3896126189148326,0.34213812468812727,0.40761292121534565,0.39974617337311474,0.6174796254045968],[0.1791327716260615,0.7204423091508775,0.22437119911502393,0.6738085620477229,0.5761189277509622,0.4451820280634613,0.26439161232948794,0.38960165318139406,0.6446152250650888,0.5275308932933894,0.36251772031047175,0.21049099908815103,0.6746682727271337,0.7453042517134265,0.6482722503013943,0.725172975102664,0.35845353371203303,0.21197793718575114,0.7533604852209567,0.18354354281053312,0,0.25437054531441,0.6286082937760666,0.18620818464444416,0.25107923363348766,0.618866187106306,0.5766007349809129,0.1405120008796849,0.6037777589387255,0.4446483031306562,0.12494193540249664,0.4659178901763179,0.1023869686711618,0.20645927964975938,0.4605772392805221,0.5745666141898521,0.551698708530024,0.6273388881417684,0.20231771812170768,0.533396428482902,0.6322842571409054,0.6538977989216065,0.5976358407385653,0.23996182692500836,0.31561704208662406,0.4989474865462374,0.2908137848105179,0.6301919070311897,0.27556481819369316,0.3713054605543247,0.7143664727072174,0.26600974984597875,0.3327930523021205,0.629609379028651,0.6455650714723155,0.5100750164114279,0.47614268250663533,0.5653896088406362,0.3133377056785679,0.5071352745329905,0.3071595453629061,0.4286601147300263,0.5308835745965489,0.6652475797541837,0.537749970359293,0.6596742161731105,0.34136432310067877,0.5764500968863955,0.33726049126450564,0.4157773233480619,0.39819570785073116,0.2546541377487022,0.6876606404644621,0.4851073682047438,0.548448760991902,0.5631383325813356,0.1704655999221673,0.670939758084746,0.2685020850644103,0.13808678071253344,0.16294704646166908,0.7012271636180167,0.5931507236645277,0.5651772105850663,0.4898577828859711,0.5194266506494328,0.23074334020716686,0.579449926302714,0.7423714541302848],[0.25799633326357196,0.7067682123176222,0.48310606467793044,0.721871884192324,0.7075942099747391,0.665918428306725,0.5222568018068121,0.19832067798085767,0.4172631840084168,0.269217344153537,0.17634161219608857,0.467953102232731,0.4941037902401281,0.6673401494468945,0.46233261195965963,0.7243446558939889,0.25450403923539966,0.4665903901212585,0.678528329003797,0.09853084511951109,0.25437054531441,0,0.4618880170851779,0.17421664088400984,0.12498571448640335,0.611723362932939,0.4392075852057927,0.13989268668582,0.6201960522064807,0.5956784003421245,0.18484846635695953,0.5880010294500141,0.26929626372903653,0.4650281635578047,0.5804538406160943,0.5839861904381551,0.5338843463444412,0.5866883215141436,0.04878796060995619,0.5258445695774483,0.589774677945015,0.43628315840714194,0.7374227470358271,0.48267155044978216,0.13236881604155545,0.6052734506235671,0.06191935865905891,0.5807068582286451,0.04102336464034759,0.13881187108125556,0.6574333667813638,0.5116642257069088,0.29189459974927656,0.41485854808137307,0.4426568688700021,0.2525615962901959,0.2197756392536645,0.30657665961586816,0.11594757257875851,0.6461366390028175,0.5659998134611133,0.1747280259840778,0.3825757109977633,0.6733926444653464,0.3542409598507711,0.5954605128423012,0.08333296396014594,0.4229225255801869,0.1328727347251944,0.1595000826849019,0.13923315300543923,0.1992875363095928,0.6353466306347059,0.22746972795345538,0.34222226501920644,0.6721066264719783,0.2102346311718697,0.5015484231593473,0.5269680243400615,0.25146249811523164,0.23112871870847612,0.6032783772959623,0.7327823949063884,0.706391336133517,0.4578674320813516,0.2615159004104599,0.4888009765112972,0.39152967623034574,0.6627647592297508],[0.7143318981699949,0.4286875517728706,0.8243318463637285,0.5495614981250686,0.6910246393143294,0.8358710247669578,0.8673010890366435,0.6006681665866416,0.19307151701996525,0.3792003788312742,0.5932591943615328,0.8206416943905265,0.05210332329938941,0.2885554346616653,0.051836070693865005,0.46331985818780913,0.7016511746580154,0.8305084178766703,0.30185604221260204,0.4573226274091074,0.6286082937760666,0.4618880170851779,0,0.43824041281052806,0.380774678786502,0.38559242681296035,0.07820846238518706,0.4887637391918787,0.43306520449854596,0.6553192120718794,0.49944516288444024,0.6015852472982244,0.6977166127851752,0.8102763429942859,0.5938337608400301,0.4032244336794419,0.3342281474912652,0.31068907568908116,0.4981807034635428,0.35087630772351636,0.30853955125901256,0.15617418189416768,0.7268312323557385,0.869985545007785,0.3315383467868953,0.5839770095762492,0.3953470360248642,0.29098932052174475,0.49130694234044825,0.3278531009831069,0.31896754440027303,0.8932673334628433,0.7536170994324279,0.1440502605027444,0.10389106576957645,0.44450153790574964,0.45120146392125166,0.39691388391677673,0.5512750344887924,0.6648215002729712,0.882199656167263,0.46220066704667473,0.09619998532032012,0.44731540783980006,0.10534512817875562,0.2695368281372207,0.4125644156275795,0.05276601262977356,0.5531674081370909,0.37193453466728854,0.4172016979007003,0.6651330168423263,0.3139183990152965,0.36963142372550334,0.14367181527671438,0.627506465773977,0.6685822946020462,0.037682809690477256,0.8665632434211084,0.6968497116300201,0.6861665299271142,0.2102346311718697,0.7233001365376024,0.7080857096136836,0.29409876994563217,0.3719230541509842,0.8066821283896196,0.07903913802435797,0.2825178517948835],[0.3097459549880038,0.5698266585932433,0.3904458080309394,0.5594088731983456,0.5289673701835144,0.5049453208806625,0.4333077413907947,0.37352764984208126,0.47155564372951503,0.4021318708674848,0.34937819000221265,0.383329303195329,0.4854256053615918,0.5683327539191083,0.4601315466369483,0.5814269903195188,0.40316944438764607,0.3907903451825352,0.5775079223308683,0.07451616588191709,0.18620818464444416,0.17421664088400984,0.43824041281052806,0,0.0808913016325858,0.4696908636822787,0.38604984117577806,0.06274633098452846,0.4676585629923587,0.4174200610798941,0.05664907481737654,0.4094107642284504,0.26769070850249904,0.37476599208703704,0.40194052005967096,0.433598855108264,0.39528015360371854,0.4622267117593888,0.15357414081242649,0.3817577192152277,0.46648774106115787,0.47539857560075355,0.5585919959552671,0.42743427576555165,0.14855572822215965,0.428081661714601,0.16325148483420174,0.4614760414695682,0.2178372614438576,0.22224827133488634,0.5443007012931113,0.45144146573720445,0.4148798029950608,0.4503975746782142,0.461596600838169,0.4076188199975334,0.3797891246517841,0.44211105519381044,0.2883203415974951,0.46727166547718346,0.4595754297655001,0.3416461183572459,0.3400694874645362,0.5254965695201876,0.3509044273888999,0.48598105991029966,0.23345172278704718,0.38565127715188585,0.30838507906011536,0.29122777237564573,0.2933679735302704,0.31732770420782014,0.5189381617403969,0.3589837333400671,0.36808690235163133,0.4951672246559547,0.27384794858885714,0.48056498485818977,0.43434302957379867,0.28008841981237936,0.2829663297431881,0.5180456348171864,0.5539501353285032,0.5275273391307742,0.324606985555801,0.39232072621617214,0.3808363674952722,0.3927207606132334,0.5648437563182515],[0.33423851299770385,0.5789098170960318,0.4684245547551159,0.5928292636400204,0.591496366329585,0.5886849854266182,0.5108455980480053,0.326590288163734,0.391683103833511,0.31821939092511103,0.30557574991839365,0.45923771175199846,0.4230823807783838,0.5505557013487538,0.39511256063576644,0.595556411094697,0.380336966207096,0.4644599956531554,0.5610486420107756,0.07221640367784253,0.25107923363348766,0.12498571448640335,0.380774678786502,0.0808913016325858,0,0.48283841867985783,0.34060522279729716,0.1062673812496084,0.4905637957317338,0.4884158725933739,0.1303923694135914,0.4723810879760753,0.3123035875863084,0.45198145241745463,0.46449455437878445,0.45438469589964114,0.405236712054653,0.46112345823892503,0.13178582039625925,0.3965456454916214,0.46452911055888857,0.3987647698215831,0.6229803719377636,0.49569026366190316,0.06384394925724111,0.4854256053615918,0.08839886299878871,0.45650597140454285,0.17038688789430523,0.1369559349704222,0.5355600785983471,0.5215121766979717,0.407996166665135,0.3742585901187915,0.38997774076221975,0.3283346516809421,0.3027864530338502,0.35821011150201565,0.24553746220706946,0.5335154368900205,0.5410522489085771,0.2688984748234143,0.2884014930650341,0.5439993768552301,0.28385932110223233,0.4743753040114884,0.15950831299620818,0.3328098676310275,0.26154939940708005,0.2090708486429156,0.2168001015766314,0.3106865050407087,0.5123153720274911,0.2753728592680207,0.2927980321904234,0.5514407527934385,0.29114739629528946,0.4227664037378606,0.5127500587968532,0.3129950750449666,0.30604573548673164,0.4916168481704981,0.618384537615841,0.5929703475573808,0.32966281584965573,0.30823657582556707,0.4620484210994902,0.3252366491094854,0.5463700528839827],[0.7791838263809583,0.0969686977921131,0.7214447957686293,0.1596251389163233,0.3458304420118736,0.584828384501329,0.758483455895684,0.8086593173218647,0.5721431839967338,0.6896311810668511,0.7899562332243277,0.7299158453945641,0.4341183086014924,0.20137557387791577,0.44206206256915237,0.10810123946045112,0.8671833236451486,0.7488713681959107,0.1997639631954243,0.5392285158604115,0.618866187106306,0.611723362932939,0.38559242681296035,0.4696908636822787,0.48283841867985783,0,0.3105828047491407,0.5367666882047528,0.05170196908962975,0.3716359274049461,0.5135573352101727,0.3028136978921392,0.7217960087757622,0.7147286537988367,0.2981093773475565,0.04864618994072052,0.07349587366897987,0.07578592901692544,0.6151036668436964,0.08328381181942687,0.08019351668120846,0.5411012670697456,0.37858041144298465,0.8053341892245603,0.48984904014094816,0.26543409988743916,0.5605454502943169,0.0969686977921131,0.656346885057176,0.5462655927853188,0.14109160831607903,0.8177094568738794,0.8876949383344994,0.5234513393883973,0.49112166888966763,0.7374343989431413,0.7277275798869048,0.7207776185666498,0.7314195327566836,0.3483623905328229,0.7425248046103645,0.7142822883209843,0.34188558111687745,0.06240467774334321,0.42215337425654287,0.13514108451754328,0.618824583115123,0.3489008449760883,0.7453042517134265,0.6251649019452362,0.6579865418543891,0.7896378810662121,0.11760319877768502,0.6611303764573452,0.4807604109714495,0.2793881695059941,0.7469109021356353,0.40187871045651113,0.7525330256073731,0.7450375835935301,0.7537995278267549,0.22687294788364867,0.37624938418780945,0.3702892517663887,0.15007031004422444,0.6796522489730354,0.6860804733686594,0.4350976195541566,0.20317759839531027],[0.679325222340322,0.364150783031411,0.7614448663506975,0.47324072892702873,0.6083349977160726,0.7567351506554647,0.8041577438470446,0.5993668836174816,0.2574072052829751,0.4085870426539869,0.5884385605588095,0.7594784687963674,0.13435020649482549,0.24831177387314163,0.13179176170316304,0.39673081672666183,0.6905894836295795,0.7708662936966786,0.26131684972272723,0.4171607021829653,0.5766007349809129,0.4392075852057927,0.07820846238518706,0.38604984117577806,0.34060522279729716,0.3105828047491407,0,0.4427076083800167,0.3552874648847538,0.5732813672939753,0.4471049157475205,0.518914938147083,0.6539092874373283,0.7482428517873597,0.5111951009388599,0.32397858222829873,0.2542202823678093,0.23994857090173283,0.46847424418378986,0.2696432401049227,0.23872148693933642,0.2259186370445045,0.6441606039956005,0.8135919547965529,0.30297184616150374,0.5011212050895185,0.37350121246651796,0.22181318439112743,0.4741422833770434,0.3188506289643324,0.26488529168258707,0.8354581484114221,0.7354801465617437,0.20841620166621003,0.17667572028974132,0.46832801669285024,0.468896679116508,0.43265017326766636,0.5405008626292807,0.5820200538651535,0.815023895516551,0.47136211509088244,0.05321604203874993,0.3745800710269466,0.12046078977617088,0.2082588884025417,0.40437023432411284,0.03416653917822035,0.5459201939871913,0.3781176006504957,0.420824336388394,0.6427347251079275,0.25433298775120056,0.3907185913687817,0.17688422558564088,0.54503805145606,0.6354327538537508,0.11097866879905784,0.8026717233447561,0.6579033503403818,0.6511001226289674,0.17269192185217483,0.6406059118017468,0.6252609965395024,0.2112732937811868,0.39993856200367545,0.7410652524294556,0.12203186429942142,0.24263808642974852],[0.2430049560343148,0.6370702674697364,0.3626325064741301,0.6226957338578252,0.5777097915908422,0.5214397620436206,0.40440194290822573,0.32571383459337,0.499908075441905,0.3986033155974211,0.3001055283199806,0.35174774384725904,0.5327592607053468,0.6339315370713225,0.5053857591623582,0.6482904591354414,0.3424434255872306,0.35557562090344286,0.6433404815213737,0.04285609844962281,0.1405120008796849,0.13989268668582,0.4887637391918787,0.06274633098452846,0.1062673812496084,0.5367666882047528,0.4427076083800167,0,0.5335892390089876,0.45921149921388876,0.04064314803002041,0.4589667773909944,0.2066179329373315,0.3455836469434582,0.4519193154297772,0.4999402063775134,0.46260564267233434,0.529493228483317,0.103191764437032,0.4488433203096568,0.5337157333892183,0.5087420052183186,0.6055516027025996,0.3850214639987298,0.1706136678412221,0.48149242026584044,0.15506820344912367,0.5285048548292978,0.17723516487394284,0.23063770982540974,0.6110935239501578,0.4111631463413628,0.3494354281612559,0.4844492797310931,0.50088180526963,0.3925922220613811,0.3614564563540922,0.43790045672913547,0.24033711618460266,0.5133570685331742,0.4393512317798967,0.3183055795214452,0.3934890844381024,0.591943562850547,0.3943351729781331,0.5523685433172413,0.21681840343723677,0.4386764195778273,0.262355150455814,0.2854424543013099,0.277126469203219,0.2525615962901959,0.5858981980027348,0.355278456291901,0.4033622056120114,0.548669534086168,0.2064643993587588,0.5309844765233479,0.40712762112684764,0.21483298470276313,0.21595779948986996,0.5817159936440358,0.6009038140166305,0.5737916980086744,0.3919741121335108,0.38960439464334745,0.36049868159740983,0.4358515303103966,0.6303144764072717],[0.7707283061743745,0.12461625517874778,0.6901991659966232,0.11462283602097513,0.2897840699228879,0.5359935687896908,0.7257665932759526,0.8203535249499426,0.6147460507338663,0.7188127333487302,0.8003549818199956,0.7002189234850204,0.48342505311867606,0.2566472123796985,0.48930668773911346,0.11865954813187371,0.8716065792981086,0.7200978967569543,0.25432046735305236,0.5409606375106867,0.6037777589387255,0.6201960522064807,0.43306520449854596,0.4676585629923587,0.4905637957317338,0.05170196908962975,0.3552874648847538,0.5335892390089876,0,0.3221183717771754,0.506376547076962,0.252863970246436,0.708766271257152,0.6846440929758053,0.24883677160482043,0.03257457458630121,0.09991475884840098,0.13090164236035226,0.6187569707076817,0.09519830628100535,0.13570436902982977,0.5854642780672344,0.32232999179957544,0.7779501185108962,0.5050868750353437,0.21338534935156508,0.573191592227379,0.15186224818969454,0.6654943881861686,0.5667796219136456,0.19544068759115965,0.7886207481095047,0.8871872915117615,0.5666926087043954,0.5365989731748471,0.7630923539285729,0.7510928023832093,0.7515431667999914,0.7406955675038686,0.2948575562273962,0.7058621566775346,0.7343329041049483,0.38123080165560225,0.057398274089221,0.46081647035468787,0.19118203587183172,0.6349648470126625,0.3928152677292594,0.755986676779018,0.6476213648221317,0.6777843558402425,0.7895684796847757,0.17315450972963545,0.68807735295973,0.518914938147083,0.22348697393129158,0.7411290226627452,0.4519216827080577,0.7191980740045977,0.7349425525708343,0.7463109699395084,0.2828977400858034,0.32004119112150803,0.3145691466712232,0.1700886959119932,0.708611724055501,0.6530224411058845,0.47715771401333557,0.2587031888591744],[0.6281780404801875,0.44672195136646337,0.4273410873677917,0.3135144029295455,0.1297485410411738,0.20927177827544752,0.45299752400388393,0.7895684796847757,0.7886411852968824,0.8012071047611232,0.763929539346834,0.44484070947919285,0.7119814409421309,0.5738496191872623,0.7041380700092077,0.4287997761357402,0.7938640196978384,0.46814516873049317,0.5740214801642608,0.49314502827794304,0.4446483031306562,0.5956784003421245,0.6553192120718794,0.4174200610798941,0.4884158725933739,0.3716359274049461,0.5732813672939753,0.45921149921388876,0.3221183717771754,0,0.4154043936755828,0.06464015900924833,0.5466989973379608,0.42841809464894826,0.0688781931149226,0.319971278923918,0.35853091819994065,0.4346795879846776,0.5668287974323377,0.33362480710930625,0.4406541017217051,0.7730763233723305,0.14837042823700386,0.5293475179051362,0.5405206885087024,0.10712885989206966,0.5805295726863522,0.45159488219502103,0.6378950288427563,0.6192179765511159,0.5162554744586257,0.5305746965377611,0.7797048775569696,0.7490778892483774,0.7357663144861554,0.8201766438574664,0.7957445935051739,0.8403584215839759,0.7041380700092077,0.06060753113451284,0.41509551165226777,0.7612515583961091,0.5677321176052634,0.3729434531886248,0.6299841659938049,0.49419263178012757,0.6519023214037869,0.6006431682963985,0.7258686884093842,0.6989143468617538,0.7098653179808043,0.6934317263790685,0.4908534446542061,0.7605004396482161,0.6768936877546614,0.14120280722035877,0.6172189750252497,0.6881678416381798,0.44372360334537625,0.5868052870788727,0.6119477738898099,0.5791926615263299,0.14391209421085105,0.11594757257875851,0.36309423192861406,0.7907148664605359,0.3834121716615498,0.6627647592297508,0.5746841614481746],[0.2609915484625606,0.6147338358064512,0.3335896589192754,0.5905414964856879,0.5356636078617403,0.47688844523510227,0.3761500561893119,0.3698998878399949,0.5265124161363457,0.4386008351582378,0.3440279209849293,0.3250850822781953,0.5462871730203651,0.6236305504694402,0.5206132207079553,0.6237423598117721,0.380706669563366,0.3314515318278712,0.6323674009879173,0.08445598026150217,0.12494193540249664,0.18484846635695953,0.49944516288444024,0.05664907481737654,0.1303923694135914,0.5135573352101727,0.4471049157475205,0.04064314803002041,0.506376547076962,0.4154043936755828,0,0.4174962374795954,0.21067680044916245,0.31734029213995746,0.4106403552709118,0.4739639149493541,0.44161422660183763,0.5124569988298111,0.1480097738429911,0.42602554907958806,0.5170122649424223,0.5323890752512076,0.5628641512121564,0.3666043758591172,0.1985069696367996,0.44170140827123083,0.19471012337100804,0.5131755099561874,0.2225184393752274,0.26549812156861285,0.5967738422740956,0.3910055285465204,0.3816143400894863,0.507610227225172,0.5205844122485735,0.4355471745642403,0.4050013012741445,0.47820642747079317,0.28473368393834947,0.470553096796627,0.4062657882685406,0.36258836219559815,0.4013679230698462,0.5659998134611132,0.4108511113972343,0.5397906205747586,0.2594286172537655,0.4469493756356864,0.3070208619186704,0.3256614842797754,0.3199845966937691,0.2866990575200556,0.5708093279352445,0.3951875806888678,0.425573581348825,0.5087420052183186,0.23015488052012026,0.5417742027484661,0.37784642717525035,0.2278744775918107,0.23570506884048106,0.5758415678701693,0.558221038111833,0.5309380639979886,0.37419226411935497,0.4293255966451647,0.3272316582854837,0.4526596751785534,0.620362086386795],[0.6492630661219967,0.37758637207026896,0.47786606960725975,0.2493266414942884,0.11494861804621176,0.2785612310011008,0.5067507678689642,0.7869362762248254,0.7448083173365015,0.7748989019272295,0.7621795559467783,0.4933946575532394,0.6579131381194804,0.5059681858502314,0.652228191912963,0.36027365440174924,0.8018948553006974,0.5160168057365353,0.5058199948319497,0.4877550721245664,0.4659178901763179,0.5880010294500141,0.6015852472982244,0.4094107642284504,0.4723810879760753,0.3028136978921392,0.518914938147083,0.4589667773909944,0.252863970246436,0.06464015900924833,0.4174962374795954,0,0.5712655502819908,0.4769894386682904,0.0036676688458826064,0.2515721982625755,0.29339245294119093,0.3675115904037313,0.5646743455943528,0.26893304518167405,0.3734383269572687,0.7266243405921791,0.14601433011278744,0.5770022458372669,0.5182353209083729,0.04016334096891778,0.565419944988491,0.3849687602347375,0.631897240899332,0.5956135825741369,0.4478125453350432,0.5808785524093704,0.7944796477055026,0.7032591843647705,0.6868717897504689,0.7992425104196236,0.7770297819673342,0.8132854449134534,0.7014476199069086,0.06105320118997118,0.47386905909504273,0.7457192005082808,0.5181857093946528,0.30388050133839467,0.5846229928303368,0.4276062150179632,0.63646533008231,0.5483490911712614,0.722111360492226,0.6772409013823278,0.6923780979958439,0.7043073133838398,0.4226924313787977,0.7355911227661998,0.6343376191333787,0.09342901795132544,0.6334845483351323,0.6326099832522308,0.4981807034635429,0.6085659363824495,0.6307075601954223,0.5139847291266687,0.14143974865917647,0.1168849726276096,0.3050204240194117,0.7643175713621894,0.4353728115766478,0.6151681902092374,0.5069599584362544],[0.08139522742155993,0.8234069342970594,0.24763578350071158,0.7806674979589459,0.6794769063037249,0.5239647944699386,0.27794995692095603,0.34663132852638073,0.6867936367546371,0.537111937723422,0.3208889268752015,0.2259139493215348,0.7394241917770479,0.8389566723456857,0.7106167219543801,0.8294206149155582,0.28604540941854123,0.2160312772463069,0.847675028743678,0.23606005459112744,0.1023869686711618,0.26929626372903653,0.6977166127851752,0.26769070850249904,0.3123035875863084,0.7217960087757622,0.6539092874373283,0.2066179329373315,0.708766271257152,0.5466989973379608,0.21067680044916245,0.5712655502819908,0,0.22965721809371176,0.5661532094524354,0.6787608522141757,0.652685454631072,0.726069877630899,0.21714026898607833,0.6354141792376524,0.7307922677634208,0.7017873552310959,0.699617583694125,0.21588919816332516,0.3675609584415506,0.6051830681898868,0.3232047772249772,0.7275947475583818,0.27331866925147597,0.4065655325320962,0.8114439681075891,0.24602407836058646,0.24406321027763572,0.6787909004611988,0.7006772538140393,0.506323668944065,0.4708986887085405,0.5718001657996451,0.2853194763990171,0.610171288505001,0.3363013177793687,0.4216187065854843,0.6040335110409091,0.7699417265207119,0.5992272941269612,0.7549500958655943,0.35556661951704505,0.6489654829989572,0.30772404373693035,0.43201946137565794,0.4042671644448221,0.1856055385371461,0.7852290555509823,0.4974859383929202,0.6007324431644164,0.6688455340513626,0.09534973821102379,0.7397190075347436,0.28591152752241883,0.041494229929824426,0.07686707907163524,0.7903234042226872,0.6951991777326559,0.6672597246353436,0.5878934202460314,0.5305282484748101,0.27155947134281694,0.6400026156361216,0.8356819757257643],[0.30807676979376597,0.8120159052695063,0.01377290711761633,0.723165011134145,0.5597780929101894,0.32880092124033217,0.05423438836424906,0.578855639755938,0.8483139089528128,0.7385463143257779,0.5525450901660132,0.011788612609203358,0.8605141590586148,0.8763892254205885,0.8370673493393521,0.8073332960650607,0.5185824697913725,0.03534595506399096,0.8821289671139606,0.39146146710887714,0.20645927964975938,0.4650281635578047,0.8102763429942859,0.37476599208703704,0.45198145241745463,0.7147286537988367,0.7482428517873597,0.3455836469434582,0.6846440929758053,0.42841809464894826,0.31734029213995746,0.4769894386682904,0.22965721809371176,0,0.4749384862522629,0.6637276232678004,0.6617599586148433,0.7441792773927252,0.4123985852063669,0.639029449123027,0.7498489747183366,0.8542639420428946,0.5696643636075955,0.09637131582630634,0.5193585886955159,0.5196225372454667,0.5011276160264281,0.7521960762019022,0.4832567240967814,0.5802487606798759,0.8346549664841356,0.10005936996943454,0.46794395426201096,0.8294063604657099,0.8408826795025693,0.7191667167368619,0.6847271931797235,0.77623432460868,0.5112789045040876,0.4928648602992195,0.10212410395270666,0.6364990463427143,0.7097881674318995,0.7459741073123961,0.7293977353054724,0.7881587271785673,0.5523452582379706,0.7549671703764742,0.5346945579423601,0.6268855218522571,0.6086029489966325,0.4197688054365109,0.8069431908492715,0.6961945910852274,0.7472272202328358,0.5713912764357003,0.3296555415430916,0.8521926897683679,0.057398274089221,0.27397889911080175,0.31040103268979036,0.8461824426484781,0.5658956321799289,0.5397926057815386,0.616161351381969,0.7304982827783475,0.04860561471519586,0.7711394087186974,0.874590176882511],[0.643765674487822,0.3743377382134513,0.4761246980471512,0.24905413497530662,0.1225852273478316,0.2825329064325272,0.5055319577985887,0.7796056564036259,0.7366066583764308,0.7666584796093387,0.7549059849359483,0.4913243762782309,0.650194617540552,0.5006572649293843,0.6443621420048531,0.35772948742029254,0.7952529078350818,0.5138200678299121,0.5006786540223266,0.4803772794262764,0.4605772392805221,0.5804538406160943,0.5938337608400301,0.40194052005967096,0.46449455437878445,0.2981093773475565,0.5111951009388599,0.4519193154297772,0.24883677160482043,0.0688781931149226,0.4106403552709118,0.0036676688458826064,0.5661532094524354,0.4749384862522629,0,0.24652804031737127,0.28708832054955774,0.3618695352607779,0.5574447389889209,0.2625048835916474,0.36781640603304466,0.7185034162216102,0.15400902070325898,0.5747233385678767,0.5101191107170826,0.04035587763226087,0.5575389512031798,0.37913279469343547,0.6244231073946483,0.5874481846671656,0.44281631652741543,0.5790149160534086,0.7883645573590577,0.6951142320053568,0.6788478303591979,0.7911237930632239,0.7689797310085197,0.8050298928443199,0.694135840587355,0.06934708621556553,0.47365217507416224,0.7377838711291624,0.5101694995847492,0.300782167869046,0.5764519568540291,0.42176574365859826,0.6285536746418319,0.5404909494191815,0.7147331611281063,0.6691150873342278,0.684380614773924,0.6979120181130177,0.4175218399054636,0.7273806892189716,0.6260977726272183,0.09807942627194287,0.6275628849795998,0.6250070004172406,0.4970961912391828,0.6031556905894099,0.6250070004172406,0.5077621191096269,0.14944732695764984,0.1250753112736021,0.2975591078564065,0.7560761915386571,0.4339162693334154,0.6070800618151908,0.5015740447782714],[0.7389955566007226,0.1441083973915116,0.6700768985565169,0.14990256188745077,0.3031544940740969,0.53261443590402,0.7066998423543961,0.7837594518826569,0.5817104638169345,0.6820614249316354,0.7639281330775471,0.6790517902331633,0.454866541253921,0.2500490711378096,0.45914159186947046,0.14601433011278744,0.8362567072608064,0.6983364912255967,0.24961585966372074,0.5060211007921557,0.5745666141898521,0.5839861904381551,0.4032244336794419,0.433598855108264,0.45438469589964114,0.04864618994072052,0.32397858222829873,0.4999402063775134,0.03257457458630121,0.319971278923918,0.4739639149493541,0.2515721982625755,0.6787608522141757,0.6637276232678004,0.24652804031737127,0,0.06563138711718916,0.11451404408856344,0.5834479500461356,0.058160048139517376,0.120106087531828,0.5533456392164826,0.337149833150029,0.7553370239144704,0.4680445722027737,0.21589409896574396,0.5364052375682634,0.13409336897708032,0.6292019729578617,0.5295559527423556,0.1916395929285065,0.7670941585371212,0.8530248153691918,0.5340288297276968,0.5051928823643665,0.7260033138004963,0.7138988239949848,0.714997541702215,0.7044140226697967,0.2999210519777858,0.6898132980568867,0.6971192893901743,0.34730757829223474,0.0874267713137521,0.42644695811084954,0.17591113622734206,0.5978995811115777,0.3609128427744474,0.7195070944147526,0.6104120813827937,0.6405724101468852,0.7552474220819422,0.16653301650517002,0.6511001226289674,0.48427467149861,0.2364907263217662,0.7084616903291104,0.4241140000091653,0.7005791747188298,0.7037918337959945,0.714222150580702,0.2663609340012367,0.3344577090837038,0.3261061978373981,0.133084772459899,0.671836667491694,0.6341735253814987,0.4441043094880066,0.25128096775946346],[0.7070416264896104,0.17020617935853485,0.6698830436923922,0.21912453649993027,0.36147121719745723,0.565908892672201,0.7086071780426298,0.7305218059033838,0.5114297166281986,0.615976778548265,0.7118728417772068,0.6763828512554928,0.38674013825038267,0.21805940155892548,0.38986474665954224,0.18582696659771097,0.7899045436856308,0.6941312003996432,0.22114402386622745,0.4630772859268737,0.551698708530024,0.5338843463444412,0.3342281474912652,0.39528015360371854,0.405236712054653,0.07349587366897987,0.2542202823678093,0.46260564267233434,0.09991475884840098,0.35853091819994065,0.44161422660183763,0.29339245294119093,0.652685454631072,0.6617599586148433,0.28708832054955774,0.06563138711718916,0,0.07885813379774674,0.5382319845710657,0.020731210966495058,0.08479496919728007,0.48317918461878273,0.3965180308224039,0.7487250481974552,0.41174758161904046,0.2640901432473284,0.482405330012267,0.09128984109809928,0.578403502714335,0.4689697107195373,0.1691459693394813,0.7629952094813031,0.8117869137165414,0.46377001626083847,0.43526226404175505,0.6620113007482779,0.6513967374781916,0.6481215941015446,0.6534364514542127,0.3488611008253752,0.6983380287056584,0.6369793105450743,0.277126469203219,0.13844978515617415,0.35645367518842735,0.1329041683474987,0.5408338417679015,0.2908686509208365,0.6672114651273486,0.5484683019879353,0.5805979078495708,0.7136806843584815,0.14143974865917647,0.5862586399967178,0.4144435394334846,0.2955604262375447,0.6734213366269871,0.35669902840041484,0.7035202173827682,0.6739423663557571,0.6811810392504802,0.21606555849476647,0.39345107677204927,0.38218753773612857,0.07193113422593772,0.6058632658383576,0.6371325823646626,0.37382405064400565,0.21771456448446824],[0.7763118308502037,0.12428136959995116,0.7525915481414251,0.23822802746996297,0.42184684586174115,0.6449214568408087,0.7915800212043385,0.7771417726617398,0.5018109833059541,0.6354175564806726,0.7603718849479643,0.7586533934312575,0.3570368643814329,0.1358582994666274,0.36709315111115554,0.15349727316508105,0.845339803805419,0.7760626762629627,0.1380867807125334,0.5249085776196503,0.6273388881417684,0.5866883215141436,0.31068907568908116,0.4622267117593888,0.46112345823892503,0.07578592901692544,0.23994857090173283,0.529493228483317,0.13090164236035226,0.4346795879846776,0.5124569988298111,0.3675115904037313,0.726069877630899,0.7441792773927252,0.3618695352607779,0.11451404408856344,0.07885813379774674,0,0.5968313472716177,0.10347202771955008,0.0014126641010793967,0.46888298443699955,0.45544479431777146,0.8300035428143927,0.45727349327580463,0.333969704676023,0.5303807996524899,0.0165549878330123,0.6297968001860097,0.5052819114902518,0.08589985512238447,0.8448653726351802,0.8726420750702277,0.45262185838443947,0.4178775529757282,0.6875310495102291,0.6809461839020653,0.664303060755997,0.7039001461254164,0.41844249542307155,0.7818227363178708,0.6720778785687145,0.27812965574846815,0.13221096094640197,0.358000801639739,0.0567679770282313,0.5829607209979479,0.27874816996508744,0.7157015820490148,0.5805203375927783,0.6166416799915502,0.7747158651063083,0.058160048139517376,0.6100869008050704,0.4165991722632055,0.3551673317685979,0.7405084805643186,0.32419557868283705,0.786619440930696,0.744842928057986,0.7497744804172445,0.14787519436836147,0.45288651030399835,0.4451628057320155,0.13362516945278324,0.6258012557186614,0.7202768327090059,0.36635974676210276,0.13606583845302755],[0.21313238862781284,0.7127215885812624,0.4305467291409444,0.7151717394442606,0.6838486463970962,0.6239607606769941,0.46936890327483693,0.2181952469304223,0.4664068676720119,0.3224291415525572,0.19296215811885575,0.4150208310543064,0.533804061046033,0.6864856279464895,0.5029301398306322,0.7277984139454509,0.2482006591795972,0.4133408687372669,0.6971192893901743,0.07479895556407115,0.20231771812170768,0.04878796060995619,0.4981807034635428,0.15357414081242649,0.13178582039625925,0.6151036668436964,0.46847424418378986,0.103191764437032,0.6187569707076817,0.5668287974323377,0.1480097738429911,0.5646743455943528,0.21714026898607833,0.4123985852063669,0.5574447389889209,0.5834479500461356,0.5382319845710657,0.5968313472716177,0,0.5278395071892069,0.6003627595870572,0.48353355026666045,0.7122845265470907,0.4292932185394791,0.16232679548575016,0.5853067429705269,0.10376153659608202,0.5926623617643556,0.0723112585162783,0.1862011057524771,0.6719836407672201,0.458248180343644,0.2715868615613561,0.4613734255213145,0.4868147140522276,0.3032071608342341,0.26954865372853687,0.3595057409975422,0.13268398190268904,0.6202496722332126,0.5141264210462778,0.22278947453478215,0.4133641400478155,0.6743945570866322,0.39296751969946675,0.610805583582601,0.1367554351755183,0.4556608649277095,0.15451912291453082,0.21291887949116634,0.19156248943921417,0.17429366831870197,0.6486495660103605,0.2808456382088884,0.386184679613574,0.6524831797967982,0.166318209229664,0.5388607480230647,0.4742573973282046,0.20226026571196,0.1853838524671953,0.6260275124384186,0.7076351812316622,0.6806891694284388,0.4636246278957712,0.3148331342862148,0.4374190669319856,0.4318189268663606,0.6822140782148352],[0.6916644453502202,0.184059722165056,0.6468752775537022,0.2121574791342627,0.3401940966816249,0.5405960202759286,0.6853086143611123,0.7242912792838798,0.5235720768880188,0.6193011292977457,0.7049854063249007,0.6537796196966991,0.4044019429082257,0.24321435200655747,0.40593160495971864,0.19548929705398155,0.7802228286800279,0.6718047125540971,0.24607581338578377,0.4515806681669083,0.533396428482902,0.5258445695774483,0.35087630772351636,0.3817577192152277,0.3965456454916214,0.08328381181942687,0.2696432401049227,0.4488433203096568,0.09519830628100535,0.33362480710930625,0.42602554907958806,0.26893304518167405,0.6354141792376524,0.639029449123027,0.2625048835916474,0.058160048139517376,0.020731210966495058,0.10347202771955008,0.5278395071892069,0,0.10947327629468916,0.49666302301884235,0.37550805628253303,0.7268740811910464,0.4071171218348562,0.24068539971197497,0.47644831545635413,0.1165911421664586,0.5707642493110798,0.4673466659531929,0.1932682107684747,0.7406955675038687,0.7999050729925723,0.4765404167183063,0.4497647373797783,0.6632455556317801,0.6513374252378762,0.6523565207662155,0.6459439572286568,0.325298075287512,0.6741780526317843,0.6350865019240548,0.2883415538097712,0.14297059826301384,0.3665781733093774,0.15828404622536485,0.5367966318505174,0.30527162082193554,0.6604303223068034,0.5479326287650839,0.5785666089444377,0.7018714986424038,0.1656531234460428,0.5882927527284963,0.42392489809273176,0.2747961913205587,0.6590801101035095,0.37514965595605326,0.680070678290334,0.6578495149705267,0.6661488775478677,0.24092318271819327,0.37231606274716283,0.3601640514512483,0.07027606975173636,0.6090662988935819,0.613637000346457,0.38622062867441553,0.24294821414965795],[0.7806633690621484,0.12370163837691765,0.7583063973797406,0.24176677513333023,0.4272284839617558,0.6509550620837,0.7973404900900353,0.7796690491439858,0.5003769841492937,0.6359796191776749,0.7630501187228049,0.7643007044766835,0.3543403283263704,0.12979678438180076,0.3648856466109752,0.15389998649623018,0.8485368972778135,0.7816619298561385,0.13204501690534282,0.5287298302451291,0.6322842571409054,0.589774677945015,0.30853955125901256,0.46648774106115787,0.46452911055888857,0.08019351668120846,0.23872148693933642,0.5337157333892183,0.13570436902982977,0.4406541017217051,0.5170122649424223,0.3734383269572687,0.7307922677634208,0.7498489747183366,0.36781640603304466,0.120106087531828,0.08479496919728007,0.0014126641010793967,0.6003627595870572,0.10947327629468916,0,0.46714740181497116,0.4607444817053871,0.8355160405023854,0.45990766750190193,0.33977071212182486,0.5331352207079721,0.01305487840081926,0.632752436084243,0.507188068818591,0.08016803451281826,0.850453966026367,0.8762702211111013,0.4511326993780001,0.4159829361171247,0.6885094078960117,0.6822266666619391,0.6646083588093823,0.706751500266727,0.42420473931108715,0.7877223540534913,0.6737766999894762,0.2778887567755793,0.13490893858556866,0.35758629475843745,0.051336359877774525,0.5852389532989843,0.2775365983603803,0.718395796638032,0.5820495301114865,0.6184430837532674,0.7783808950876272,0.05244509564885957,0.6109881955356163,0.4161242366133597,0.3605549167315504,0.7446813976805646,0.3213534130501948,0.792404913079335,0.7493416949410444,0.7540730881744421,0.1427361178857522,0.4582108201441175,0.4506486828940994,0.13826083539961767,0.6264061394337972,0.726072835882628,0.3652715229997316,0.13001366553409904],[0.6989281726966207,0.5891197372007343,0.8702536611239631,0.7037292796965433,0.8258051379957182,0.9346251422759712,0.9129901210214988,0.5247513972696154,0.036935788470438435,0.26372793334273276,0.5241630877740225,0.8621117571279449,0.12787781952267271,0.44644170286151597,0.10304132336100152,0.6233586847569281,0.639427282756249,0.8678277395851433,0.4596470177043139,0.467415358222266,0.6538977989216065,0.43628315840714194,0.15617418189416768,0.47539857560075355,0.3987647698215831,0.5411012670697456,0.2259186370445045,0.5087420052183186,0.5854642780672344,0.7730763233723305,0.5323890752512076,0.7266243405921791,0.7017873552310959,0.8542639420428946,0.7185034162216102,0.5533456392164826,0.48317918461878273,0.46888298443699955,0.48353355026666045,0.49666302301884235,0.46714740181497116,0,0.8616652256903327,0.8982393190870557,0.3338547778662029,0.715266329176195,0.3752264844917876,0.4498004136106884,0.45233813267804673,0.29305500387478295,0.4795922512889888,0.9245542649790937,0.7029858361231293,0.020731210966495058,0.04789047611977117,0.3334266513830165,0.35035302817385633,0.2691344541156862,0.49572428547439523,0.7917605393091645,0.9388170125012995,0.37586043813454856,0.20618775716992327,0.6046280745069266,0.13871389644253462,0.43013177974891614,0.36379600249719735,0.18800481238852823,0.49082945004755363,0.3006122634266776,0.3453212364905187,0.6261457506980048,0.474710812558019,0.27031622624177953,0.10293086619839681,0.7651042816217575,0.6511446234089585,0.16003255659866805,0.9142907070420955,0.690434004862833,0.6719820434032335,0.3687901440998526,0.8578215272629771,0.8400155600580075,0.4315018448531903,0.25962091054493863,0.8604129617942883,0.10740892153521286,0.44037974681603775],[0.7811958176469116,0.42325859454496584,0.566329279955145,0.25837876431561313,0.031244188120762684,0.28879126020280776,0.5870756813942242,0.9350059484528697,0.8827479143916718,0.9241109889626339,0.9098895323512138,0.5858927073377337,0.781894195303501,0.5827638762463057,0.7800727131434586,0.3949847913845488,0.9445698225013176,0.6096595101814245,0.579464729460204,0.6363591122704289,0.5976358407385653,0.7374227470358271,0.7268312323557385,0.5585919959552671,0.6229803719377636,0.37858041144298465,0.6441606039956005,0.6055516027025996,0.32232999179957544,0.14837042823700386,0.5628641512121564,0.14601433011278744,0.699617583694125,0.5696643636075955,0.15400902070325898,0.337149833150029,0.3965180308224039,0.45544479431777146,0.7122845265470907,0.37550805628253303,0.4607444817053871,0.8616652256903327,0,0.6704692441448014,0.6686256398815061,0.14299256170588934,0.7160061026471034,0.47560060521038683,0.7809165679135298,0.7457119984934598,0.5207839812767493,0.6685309188049113,0.9321917009727775,0.839214154219381,0.8189899045562027,0.949602973003411,0.9276199938086003,0.9622031297650849,0.8494535778385419,0.08770806361583904,0.5405623205088247,0.8963675435184509,0.6510918814123742,0.3529254989384691,0.7219849387399949,0.5167200459557009,0.7870919160753314,0.6767541182933271,0.8705204601091457,0.8275732815822296,0.8430351223074803,0.8449569724761425,0.49981167035587176,0.8852388316993287,0.774217842842833,0.09637131582630634,0.769845441186869,0.7539491433646881,0.5768331245970731,0.7398249964834691,0.7648557119190418,0.6078852109179931,0,0.027829679004207523,0.42847798849676316,0.91351646232345,0.5213020953573548,0.7496154391212765,0.5851271749363428],[0.2754915227718866,0.9040456295673301,0.10030681119127376,0.8211758515510004,0.6607942474693063,0.42181643434299637,0.09486217265749172,0.5621781175556798,0.888011011552491,0.7547010489563223,0.5374370294344293,0.08001498044121086,0.9174925391936092,0.9588178430782968,0.8918229279520037,0.9010910429965847,0.4835114099500285,0.056556435625623354,0.9652980656712431,0.4266349542004435,0.23996182692500836,0.48267155044978216,0.869985545007785,0.42743427576555165,0.49569026366190316,0.8053341892245603,0.8135919547965529,0.3850214639987298,0.7779501185108962,0.5293475179051362,0.3666043758591172,0.5770022458372669,0.21588919816332516,0.09637131582630634,0.5747233385678767,0.7553370239144704,0.7487250481974552,0.8300035428143927,0.4292932185394791,0.7268740811910464,0.8355160405023854,0.8982393190870557,0.6704692441448014,0,0.5597646883793121,0.6192283712505412,0.5290539522608108,0.836658914195013,0.49191458936162696,0.6115304444688091,0.920058178530664,0.025660764746422392,0.42200900401860936,0.8740528191381723,0.8901237686003621,0.7264277391853214,0.6910805681557767,0.7903369998918537,0.5054111880223201,0.5938590435432958,0.16237209997294294,0.6418526116724114,0.7708913796993513,0.8396738394156932,0.7817416499899497,0.8709439599708586,0.5704486000052156,0.8164704509313458,0.5274455868383146,0.6468089173336671,0.6221183099437432,0.39363836515576334,0.8924785594375367,0.7140432110493766,0.7930270870994726,0.6719389131500714,0.30929097685442264,0.9122725389272575,0.10666376125502866,0.2515342304505617,0.28669163793850283,0.9237571471048228,0.6667286792549093,0.6407147801693012,0.6983195787229831,0.7476425450712341,0.1455832868172092,0.8235074331397011,0.9566536830794135],[0.378253115370714,0.5809228524129748,0.5359935687896908,0.6139515787631391,0.6358429466208865,0.6523334892280932,0.5782422050983349,0.31538409771020814,0.32474072570906026,0.2574690640857212,0.29851251119733135,0.5262132107491565,0.3690765651759181,0.5313899106220883,0.33924310560895876,0.6013427306200783,0.3893630729740429,0.5306877706221912,0.5427860039544445,0.1291521096270188,0.31561704208662406,0.13236881604155545,0.3315383467868953,0.14855572822215965,0.06384394925724111,0.48984904014094816,0.30297184616150374,0.1706136678412221,0.5050868750353437,0.5405206885087024,0.1985069696367996,0.5182353209083729,0.3675609584415506,0.5193585886955159,0.5101191107170826,0.4680445722027737,0.41174758161904046,0.45727349327580463,0.16232679548575016,0.4071171218348562,0.45990766750190193,0.3338547778662029,0.6686256398815061,0.5597646883793121,0,0.5267300991450917,0.06934708621556553,0.4496481755009198,0.17105712293864048,0.07436242304806374,0.5239831959482416,0.5862421778965198,0.4288596172502263,0.30981384418904767,0.3288268510043481,0.2763582675822741,0.25507062291720706,0.2971940913958364,0.2431620196012166,0.5813656682609946,0.6093708973438313,0.22883931094221996,0.24701810947791275,0.5540657329737521,0.22817177525346352,0.4617003264970958,0.12526679919759912,0.2887912602028077,0.25389023257725923,0.15438325563925853,0.17297813807456092,0.33518363108462856,0.5028875505118048,0.21579115923462022,0.22964337904782745,0.5911241264555104,0.33239564633978536,0.37254536744540045,0.580391030975886,0.36231749445406963,0.3501307052999712,0.4664068676720119,0.6640994512898262,0.6396990783371596,0.33518363108462856,0.2471555013104688,0.5303484766728296,0.26830020950695777,0.5267056905372652],[0.6813433419188295,0.33569530121354857,0.5209752495044843,0.20452538787357183,0.10770752581757942,0.3200678203803228,0.5505260130993268,0.8062357301030694,0.7356363845989846,0.7791066041533743,0.7820755620396114,0.5359935687896908,0.6397275934492466,0.47047120926211555,0.6361752970144839,0.3170716427642451,0.8270458323015526,0.5583976694800161,0.469596862441777,0.5071226030940447,0.4989474865462374,0.6052734506235671,0.5839770095762492,0.428081661714601,0.4854256053615918,0.26543409988743916,0.5011212050895185,0.48149242026584044,0.21338534935156508,0.10712885989206966,0.44170140827123083,0.04016334096891778,0.6051830681898868,0.5196225372454667,0.04035587763226087,0.21589409896574396,0.2640901432473284,0.333969704676023,0.5853067429705269,0.24068539971197497,0.33977071212182486,0.715266329176195,0.14299256170588934,0.6192283712505412,0.5267300991450917,0,0.5782644556989087,0.352365868552065,0.6499073654316969,0.6026219819675491,0.41111115678034404,0.6237973971038454,0.8231066702924024,0.692547095588321,0.6734898740991762,0.8070630383395785,0.7864158892737438,0.816807350846586,0.7210457545492198,0.08019351668120846,0.5184585144938552,0.7573070169423248,0.5051123188047876,0.2617918876419696,0.5749005353058312,0.3948738897166871,0.6486479115927009,0.5324474366353186,0.7410043757555543,0.6850939687366137,0.7029400132367034,0.7312565246670639,0.38677327502579717,0.7409434941111529,0.626736609862748,0.06254958999045873,0.6633717680199229,0.6130161122203995,0.5421004759738826,0.6411015330784738,0.6617842861899647,0.48317918461878273,0.1388796604998537,0.12014073701134408,0.2853194763990171,0.7685045751736772,0.4788685420650499,0.6032926002399338,0.47179560080891586],[0.3208391211853465,0.653075028293612,0.5186898739674114,0.6792872960931309,0.6845437322046463,0.6715873789332165,0.5595156892107432,0.24347149245482552,0.358968128411941,0.23929371274530628,0.22548227031217957,0.5058602223617538,0.42812099854290225,0.6052114249051643,0.39660962339747413,0.6725712149017763,0.3155866676470057,0.5071183792113414,0.6166625554206364,0.10756313909670406,0.2908137848105179,0.06191935865905891,0.3953470360248642,0.16325148483420174,0.08839886299878871,0.5605454502943169,0.37350121246651796,0.15506820344912367,0.573191592227379,0.5805295726863522,0.19471012337100804,0.565419944988491,0.3232047772249772,0.5011276160264281,0.5575389512031798,0.5364052375682634,0.482405330012267,0.5303807996524899,0.10376153659608202,0.47644831545635413,0.5331352207079721,0.3752264844917876,0.7160061026471034,0.5290539522608108,0.06934708621556553,0.5782644556989087,0,0.5231565420663479,0.09726607569039385,0.07874156647396434,0.5979193121434638,0.5571119858229617,0.3573355713014964,0.35297385825909644,0.3787298588926639,0.23977175522679314,0.21208268806429922,0.2788511244747529,0.16927651867337645,0.6264061394337972,0.5978080924293875,0.17614443794289664,0.3165841431184793,0.6239091767671404,0.28794657025612647,0.5356576067069768,0.0667300672361067,0.3565344806261395,0.18077214774131964,0.12630259835426572,0.1256406355179676,0.26572607560669825,0.5766881243746079,0.19589391770715212,0.2781028993312759,0.6441122921967801,0.27350913154944345,0.43510499301366684,0.5631002597536205,0.3105828047491407,0.2933489325981989,0.5395781616076634,0.7114080927549922,0.6859411954937747,0.40586578879687657,0.23011805281467,0.5192327539253665,0.32565821210969015,0.6004913707944863],[0.7758577562416907,0.1390602759507919,0.7610285586967794,0.25928123402234093,0.4418152031625642,0.6607942474693064,0.8004570156993046,0.7690034811397937,0.4832367865508689,0.6212382238494282,0.7527842123342794,0.7664636753478047,0.3366435105771429,0.12234715119194443,0.34730757829223474,0.17036681838223394,0.8397160820413885,0.7834481966401567,0.12620351741240193,0.5220434263037855,0.6301919070311897,0.5807068582286451,0.29098932052174475,0.4614760414695682,0.45650597140454285,0.0969686977921131,0.22181318439112743,0.5285048548292978,0.15186224818969454,0.45159488219502103,0.5131755099561874,0.3849687602347375,0.7275947475583818,0.7521960762019022,0.37913279469343547,0.13409336897708032,0.09128984109809928,0.0165549878330123,0.5926623617643556,0.1165911421664586,0.01305487840081926,0.4498004136106884,0.47560060521038683,0.836658914195013,0.4496481755009198,0.352365868552065,0.5231565420663479,0,0.6232898393230645,0.49510829444461785,0.07956698395623593,0.8521422319395398,0.8687996591891742,0.4339556989377201,0.3985470259017517,0.674478911456138,0.6687684990100874,0.6494547701752078,0.6969714195581913,0.437020362973159,0.7922964234558811,0.6611807000061084,0.2620797460385166,0.15261317203373065,0.341507981480183,0.03798809372296939,0.5740046699298065,0.2606251077219689,0.7081842721230638,0.5691202231875476,0.6060862906228845,0.7710572056396509,0.05299146653519141,0.5968349411514194,0.3999519189282284,0.375135426743864,0.7391844771190081,0.30364920641477683,0.795756746742108,0.745154352658411,0.7490635493370283,0.12765743727578907,0.4729873551325493,0.464839426189819,0.1357351686198626,0.6117373910113685,0.7295449628524552,0.3484481086644162,0.12182693363082302],[0.24765720335153768,0.7508052866751391,0.5015719096928916,0.7675099954336775,0.751448826946499,0.7007370140755842,0.5391331189113255,0.15275056724873182,0.42975624476622143,0.2592198000466282,0.13068618423737988,0.48474972518367904,0.5200182110955268,0.7070780737766686,0.48744767612276285,0.768879134132794,0.2136825749774626,0.4812589200886555,0.7184914592810254,0.14015416624681312,0.27556481819369316,0.04102336464034759,0.49130694234044825,0.2178372614438576,0.17038688789430523,0.656346885057176,0.4741422833770434,0.17723516487394284,0.6654943881861686,0.6378950288427563,0.2225184393752274,0.631897240899332,0.27331866925147597,0.4832567240967814,0.6244231073946483,0.6292019729578617,0.578403502714335,0.6297968001860097,0.0723112585162783,0.5707642493110798,0.632752436084243,0.45233813267804673,0.7809165679135298,0.49191458936162696,0.17105712293864048,0.6499073654316969,0.09726607569039385,0.6232898393230645,0,0.16045206224293623,0.6990326257801317,0.5215732848577547,0.25786461525412246,0.43233122102749816,0.4634861208070959,0.2315455025157226,0.196861692501621,0.2939323021601696,0.07056402404439084,0.6893680388236157,0.5866371418038879,0.14866680071437896,0.4168248997670587,0.7183599198837007,0.3821428309203662,0.6368698082537051,0.08466194842025543,0.455501170345354,0.08726228657691663,0.15802513181571504,0.1264098515127324,0.17090327242492673,0.6774120649442623,0.2203047740581235,0.3641830188850653,0.7168335087209311,0.20010208119639117,0.5298209320414894,0.5446840107915253,0.24844419302088877,0.22282748871448851,0.6414211409315157,0.7762716946497479,0.7497085754802386,0.5022141643258358,0.2528513784206036,0.5109163561380314,0.41747831485756554,0.702374620118617],[0.4013679230698462,0.6322588027729766,0.5975209789042161,0.6791656018496536,0.7125588517763461,0.7297878237806774,0.6389219750836462,0.27629287358281335,0.27570364117929813,0.17851422274643472,0.26495345268296455,0.5857023327137032,0.3549630133681932,0.5630926448816975,0.3223465188461558,0.6555762802828262,0.3696