"trial_id","rt","stimulus","response","trial_type","trial_index","plugin_version","time_elapsed","participant_number","success","raw_payload","placements","dissimilarity_vector","n_words","trial_category","distance_matrix","value"
"consent_form","64234","
    <div style=""max-width:800px; margin:0 auto; text-align:left; font-size: 16px; padding: 10px 0;"">
      <h1>Informed Consent Form</h1>
      <p>You are being invited to participate in a research study titled <strong>""Reproducibility of Psychological Science and Instruction.""</strong> This study is being done by Dr. Bria Long from UC San Diego and associated graduate students in the Experimental Methods course. You were selected to participate in this study because you are an adult in the U.S. and have been a represented population in previous psychology studies.</p>
      
      <p>The purpose of this study is to better understand how well previously published studies in the psychological field replicate online and with different populations. Your participation in this research should last approximately <strong>5-30 minutes</strong>. If you agree to take part in this study, you may be asked to view a set of stimuli, including pictures, sounds, written text, or videos and then giving some responses via key-presses, verbally, or with paper-and-pencil. We may also observe your choices or preferences among an array of stimuli. These stimuli will be taken directly from or closely adapted from studies that already exist in the published psychological literature. Stimuli will include, e.g., pictures of objects and human faces, audio and video clips, short text passages, etc. None of the stimuli will be disturbing, threatening, or offensive. The online and in-person experiments described in this protocol will take no more than 30 minutes. An example game you might play would be to click on an image on the screen that matches a word you hear being said out loud. Your total expected time commitment for this study is between 5-30 minutes, and is specified in the study description.</p>
      
      <p>Your participation in this study is completely voluntary and you can withdraw at any time. Choosing not to participate or withdrawing will result in no penalty or loss of benefits to which you are entitled. You are free to skip any question that you choose.</p>
      
      <p>We will not be asking for any personally identifying information, and we will handle responses as confidentially as possible. Your SONA or Prolific IDs will never be tied to your responses on this survey. However, we cannot guarantee the confidentiality of information transmitted over the Internet. To minimize this risk, data containing anything that might be personally identifying (e.g. Prolific IDs or IP addresses) will be encrypted on transfer and storage and will only be accessible to qualified lab personnel. We will be keeping data collected as part of this experiment indefinitely. This anonymized data (containing neither Prolific IDs nor IP addresses) may be shared with the scientific community or with other participants to be used as stimuli in future studies.</p>
      
      <p>If you have questions about this project or if you have a research-related problem, you may contact the researcher(s), <strong>Dr. Bria Long, <a href=""mailto:brlong@ucsd.edu"">brlong@ucsd.edu</a></strong>. If you have any questions concerning your rights as a research subject, you may contact the UC San Diego Office of IRB Administration at <a href=""mailto:irb@ucsd.edu"">irb@ucsd.edu</a> or 858-246-4777.</p>
      
      <h3 style=""margin-top: 25px;"">Consent Statement</h3>
      <p style=""font-weight: bold;"">By participating in this research you are indicating that you are at least 18 years old, have read this consent form, and agree to participate in this research study. Please keep this consent form for your records.</p>
    </div>
  ","0","html-button-response","0","2.1.0","64237","4k1vhb427r_evtz0w","","","","","","","",""
"","35132","","{""participant_date"":""11/25/2025"",""participant_time"":""12:20 PM""}","survey-html-form","1","2.1.0","99371","4k1vhb427r_evtz0w","","","","","","","",""
"","8587","
    <div style=""display:flex; align-items:center; justify-content:center; height:100vh; font-family:sans-serif;"">
      <div style=""max-width:900px; margin:0 auto; text-align:center;"">
        <h1 style= ""font-size: 24px;"">Welcome! Thank you for participating in the study.</h1>
        <h2 style= ""font-size: 22px;"">The study will be in Madarin Chinese.</h2>
        <h2 style= ""font-size: 22px;"">Please use desktop computers or laptops for the study. Tablets and phones are not allowed.</h2>
        <p style=""font-size:16px; margin-top:30px;""><em>Press any key to continue.</em></p>
      </div>
    </div>
  "," ","html-keyboard-response","2","2.1.0","107960","4k1vhb427r_evtz0w","","","","","","","",""
"","29262","
    <div style=""display:flex; align-items:center; justify-content:center; height:100vh; font-family:sans-serif;"">
      <div style=""max-width:900px; margin:0 auto; text-align:center;"">
        <p style=""font-size:18px; line-height:1.6;"">
          In this task, you will be presented with <strong>90 words</strong> arranged <strong>outside a circle</strong>.<br>
          Your job is to <strong>drag these words into the circle</strong> and <strong>rearrange them</strong> based on their <strong>meaning similarity</strong>.<br><br>
          Words that are <strong>similar in meaning</strong> should be placed <strong>closer together</strong>.<br>
          Words that are <strong>different in meaning</strong> should be placed <strong>farther apart</strong>.<br><br>
          You can place the words <strong>anywhere inside the circle</strong>. There is no single correct answer — 
          we are interested in <strong>your personal judgment</strong> of how these words relate to each other.<br><br>
          <strong>You must move all words into the circle before you can finish.</strong><br>
          After the initial arrangement, you will arrange words from specific categories.
        </p>
        <p style=""font-size:16px; margin-top:30px;""><em>Press any key to continue.</em></p>
      </div>
    </div>
  "," ","html-keyboard-response","3","2.1.0","137224","4k1vhb427r_evtz0w","","","","","","","",""
"","7110","","","fullscreen","4","2.1.0","145338","4k1vhb427r_evtz0w","true","{""placements"":[{""word"":""骄傲"",""x"":376.7,""y"":426.8,""cx"":396,""cy"":444.2,""angle_rad"":1.116,""angle_deg"":64},{""word"":""冰箱"",""x"":418.7,""y"":373.8,""cx"":438,""cy"":391.2,""angle_rad"":0.438,""angle_deg"":25.1},{""word"":""兔子"",""x"":451.7,""y"":165.8,""cx"":471,""cy"":183.2,""angle_rad"":-0.943,""angle_deg"":306},{""word"":""反感"",""x"":370.7,""y"":502.8,""cx"":390,""cy"":520.2,""angle_rad"":1.34,""angle_deg"":76.8},{""word"":""协议"",""x"":106.7,""y"":366.8,""cx"":126,""cy"":384.2,""angle_rad"":2.99,""angle_deg"":171.3},{""word"":""嘴唇"",""x"":306.7,""y"":376.8,""cx"":326,""cy"":394.2,""angle_rad"":2.068,""angle_deg"":118.5},{""word"":""剪刀"",""x"":537.7,""y"":156.8,""cx"":557,""cy"":174.2,""angle_rad"":-0.704,""angle_deg"":319.7},{""word"":""长颈鹿"",""x"":101.6,""y"":344.8,""cx"":128,""cy"":362.2,""angle_rad"":3.087,""angle_deg"":176.9},{""word"":""制度"",""x"":344.7,""y"":380.8,""cx"":364,""cy"":398.2,""angle_rad"":1.288,""angle_deg"":73.8},{""word"":""过失"",""x"":78.7,""y"":355.8,""cx"":98,""cy"":373.2,""angle_rad"":3.05,""angle_deg"":174.7},{""word"":""友情"",""x"":423.7,""y"":302.8,""cx"":443,""cy"":320.2,""angle_rad"":-0.31,""angle_deg"":342.2},{""word"":""方法"",""x"":93.7,""y"":395.8,""cx"":113,""cy"":413.2,""angle_rad"":2.881,""angle_deg"":165.1},{""word"":""蚂蚁"",""x"":392.7,""y"":410.8,""cx"":412,""cy"":428.2,""angle_rad"":0.9,""angle_deg"":51.6},{""word"":""沮丧"",""x"":563.7,""y"":182.8,""cx"":583,""cy"":200.2,""angle_rad"":-0.571,""angle_deg"":327.3},{""word"":""沙发"",""x"":153.7,""y"":380.8,""cx"":173,""cy"":398.2,""angle_rad"":2.876,""angle_deg"":164.8},{""word"":""暴力"",""x"":524.7,""y"":194.8,""cx"":544,""cy"":212.2,""angle_rad"":-0.618,""angle_deg"":324.6},{""word"":""筷子"",""x"":366.7,""y"":411.8,""cx"":386,""cy"":429.2,""angle_rad"":1.144,""angle_deg"":65.6},{""word"":""概念"",""x"":155.7,""y"":559.8,""cx"":175,""cy"":577.2,""angle_rad"":2.227,""angle_deg"":127.6},{""word"":""麻雀"",""x"":155.7,""y"":597.8,""cx"":175,""cy"":615.2,""angle_rad"":2.154,""angle_deg"":123.4},{""word"":""椅子"",""x"":128.7,""y"":568.3,""cx"":148,""cy"":585.7,""angle_rad"":2.279,""angle_deg"":130.6},{""word"":""买卖"",""x"":398.7,""y"":528.8,""cx"":418,""cy"":546.2,""angle_rad"":1.237,""angle_deg"":70.9},{""word"":""魔力"",""x"":365.7,""y"":592.8,""cx"":385,""cy"":610.2,""angle_rad"":1.437,""angle_deg"":82.3},{""word"":""结果"",""x"":344.7,""y"":526.8,""cx"":364,""cy"":544.2,""angle_rad"":1.499,""angle_deg"":85.9},{""word"":""敌意"",""x"":379.7,""y"":376.8,""cx"":399,""cy"":394.2,""angle_rad"":0.734,""angle_deg"":42},{""word"":""纠纷"",""x"":219.7,""y"":353.8,""cx"":239,""cy"":371.2,""angle_rad"":2.953,""angle_deg"":169.2},{""word"":""关系"",""x"":431.7,""y"":274.8,""cx"":451,""cy"":292.2,""angle_rad"":-0.52,""angle_deg"":330.2},{""word"":""铅笔"",""x"":580.7,""y"":468.8,""cx"":600,""cy"":486.2,""angle_rad"":0.499,""angle_deg"":28.6},{""word"":""愤怒"",""x"":121.7,""y"":542.3,""cx"":141,""cy"":559.7,""angle_rad"":2.354,""angle_deg"":134.9},{""word"":""团队"",""x"":592.7,""y"":315.8,""cx"":612,""cy"":333.2,""angle_rad"":-0.064,""angle_deg"":356.3},{""word"":""洗衣机"",""x"":328.6,""y"":431.8,""cx"":355,""cy"":449.2,""angle_rad"":1.52,""angle_deg"":87.1},{""word"":""大腿"",""x"":404.7,""y"":226.8,""cx"":424,""cy"":244.2,""angle_rad"":-0.96,""angle_deg"":305},{""word"":""慈善"",""x"":519.7,""y"":510.8,""cx"":539,""cy"":528.2,""angle_rad"":0.756,""angle_deg"":43.3},{""word"":""手指"",""x"":57.7,""y"":269.8,""cx"":77,""cy"":287.2,""angle_rad"":-2.915,""angle_deg"":193},{""word"":""性质"",""x"":95.7,""y"":510.8,""cx"":115,""cy"":528.2,""angle_rad"":2.493,""angle_deg"":142.8},{""word"":""猫"",""x"":567.9,""y"":485.8,""cx"":580,""cy"":503.2,""angle_rad"":0.588,""angle_deg"":33.7},{""word"":""眼睛"",""x"":453.7,""y"":158.8,""cx"":473,""cy"":176.2,""angle_rad"":-0.955,""angle_deg"":305.3},{""word"":""床"",""x"":419.9,""y"":264.8,""cx"":432,""cy"":282.2,""angle_rad"":-0.691,""angle_deg"":320.4},{""word"":""鼠标"",""x"":218.7,""y"":206.8,""cx"":238,""cy"":224.2,""angle_rad"":-2.298,""angle_deg"":228.3},{""word"":""微波炉"",""x"":321.6,""y"":406.8,""cx"":348,""cy"":424.2,""angle_rad"":1.598,""angle_deg"":91.5},{""word"":""原因"",""x"":388.7,""y"":626.8,""cx"":408,""cy"":644.2,""angle_rad"":1.376,""angle_deg"":78.8},{""word"":""锤子"",""x"":415.7,""y"":421.8,""cx"":435,""cy"":439.2,""angle_rad"":0.809,""angle_deg"":46.4},{""word"":""勺子"",""x"":124.7,""y"":388.8,""cx"":144,""cy"":406.2,""angle_rad"":2.875,""angle_deg"":164.7},{""word"":""缘分"",""x"":117.7,""y"":157.8,""cx"":137,""cy"":175.2,""angle_rad"":-2.454,""angle_deg"":219.4},{""word"":""胳膊"",""x"":380.7,""y"":141.8,""cx"":400,""cy"":159.2,""angle_rad"":-1.314,""angle_deg"":284.7},{""word"":""老鼠"",""x"":39.7,""y"":242.8,""cx"":59,""cy"":260.2,""angle_rad"":-2.842,""angle_deg"":197.1},{""word"":""兴奋"",""x"":61.7,""y"":332.8,""cx"":81,""cy"":350.2,""angle_rad"":3.141,""angle_deg"":180},{""word"":""耳朵"",""x"":428.7,""y"":148.8,""cx"":448,""cy"":166.2,""angle_rad"":-1.081,""angle_deg"":298.1},{""word"":""社会"",""x"":99.7,""y"":548.3,""cx"":119,""cy"":565.7,""angle_rad"":2.39,""angle_deg"":137},{""word"":""牙刷"",""x"":19.7,""y"":277.8,""cx"":39,""cy"":295.2,""angle_rad"":-2.967,""angle_deg"":190},{""word"":""过程"",""x"":178.7,""y"":333.8,""cx"":198,""cy"":351.2,""angle_rad"":3.134,""angle_deg"":179.5},{""word"":""光彩"",""x"":345.7,""y"":240.8,""cx"":365,""cy"":258.2,""angle_rad"":-1.409,""angle_deg"":279.3},{""word"":""空调"",""x"":166.7,""y"":404.8,""cx"":186,""cy"":422.2,""angle_rad"":2.727,""angle_deg"":156.2},{""word"":""乌龟"",""x"":577.7,""y"":485.8,""cx"":597,""cy"":503.2,""angle_rad"":0.555,""angle_deg"":31.8},{""word"":""地位"",""x"":125.7,""y"":93.8,""cx"":145,""cy"":111.2,""angle_rad"":-2.28,""angle_deg"":229.4},{""word"":""创伤"",""x"":561.7,""y"":461.8,""cx"":581,""cy"":479.2,""angle_rad"":0.51,""angle_deg"":29.2},{""word"":""死亡"",""x"":324.7,""y"":75.8,""cx"":344,""cy"":93.2,""angle_rad"":-1.594,""angle_deg"":268.7},{""word"":""快乐"",""x"":288.7,""y"":74.8,""cx"":308,""cy"":92.2,""angle_rad"":-1.732,""angle_deg"":260.7},{""word"":""身份"",""x"":98.7,""y"":151.8,""cx"":118,""cy"":169.2,""angle_rad"":-2.48,""angle_deg"":217.9},{""word"":""婚姻"",""x"":97.7,""y"":115.8,""cx"":117,""cy"":133.2,""angle_rad"":-2.392,""angle_deg"":222.9},{""word"":""错误"",""x"":511.7,""y"":121.8,""cx"":531,""cy"":139.2,""angle_rad"":-0.861,""angle_deg"":310.7},{""word"":""脚踝"",""x"":296.7,""y"":434.8,""cx"":316,""cy"":452.2,""angle_rad"":1.892,""angle_deg"":108.4},{""word"":""老虎"",""x"":75.7,""y"":246.8,""cx"":95,""cy"":264.2,""angle_rad"":-2.817,""angle_deg"":198.6},{""word"":""冷漠"",""x"":142.7,""y"":326.8,""cx"":162,""cy"":344.2,""angle_rad"":-3.111,""angle_deg"":181.8},{""word"":""疾病"",""x"":294.7,""y"":59.8,""cx"":314,""cy"":77.2,""angle_rad"":-1.702,""angle_deg"":262.5},{""word"":""扫帚"",""x"":187.7,""y"":388.8,""cx"":207,""cy"":406.2,""angle_rad"":2.767,""angle_deg"":158.5},{""word"":""难过"",""x"":124.7,""y"":108.8,""cx"":144,""cy"":126.2,""angle_rad"":-2.315,""angle_deg"":227.4},{""word"":""钥匙"",""x"":479.7,""y"":89.8,""cx"":499,""cy"":107.2,""angle_rad"":-1.02,""angle_deg"":301.5},{""word"":""天堂"",""x"":375.7,""y"":256.8,""cx"":395,""cy"":274.2,""angle_rad"":-1.035,""angle_deg"":300.7},{""word"":""义务"",""x"":197.7,""y"":306.8,""cx"":217,""cy"":324.2,""angle_rad"":-2.95,""angle_deg"":191},{""word"":""数据"",""x"":169.7,""y"":112.8,""cx"":189,""cy"":130.2,""angle_rad"":-2.203,""angle_deg"":233.8},{""word"":""爱心"",""x"":402.7,""y"":633.8,""cx"":422,""cy"":651.2,""angle_rad"":1.336,""angle_deg"":76.6},{""word"":""内容"",""x"":424.7,""y"":27.8,""cx"":444,""cy"":45.2,""angle_rad"":-1.272,""angle_deg"":287.1},{""word"":""现象"",""x"":442.7,""y"":101.8,""cx"":462,""cy"":119.2,""angle_rad"":-1.119,""angle_deg"":295.9},{""word"":""柜子"",""x"":119.7,""y"":519.8,""cx"":139,""cy"":537.2,""angle_rad"":2.416,""angle_deg"":138.4},{""word"":""奇迹"",""x"":532.7,""y"":479.8,""cx"":552,""cy"":497.2,""angle_rad"":0.63,""angle_deg"":36.1},{""word"":""恐惧"",""x"":524.7,""y"":435.8,""cx"":544,""cy"":453.2,""angle_rad"":0.489,""angle_deg"":28},{""word"":""膝盖"",""x"":532.7,""y"":124.8,""cx"":552,""cy"":142.2,""angle_rad"":-0.8,""angle_deg"":314.2},{""word"":""舒心"",""x"":521.7,""y"":459.8,""cx"":541,""cy"":477.2,""angle_rad"":0.588,""angle_deg"":33.7},{""word"":""债务"",""x"":167.7,""y"":518.8,""cx"":187,""cy"":536.2,""angle_rad"":2.29,""angle_deg"":131.2},{""word"":""大象"",""x"":387.7,""y"":278.8,""cx"":407,""cy"":296.2,""angle_rad"":-0.756,""angle_deg"":316.7},{""word"":""作用"",""x"":126.7,""y"":129.8,""cx"":146,""cy"":147.2,""angle_rad"":-2.359,""angle_deg"":224.8},{""word"":""纪律"",""x"":138.7,""y"":355.8,""cx"":158,""cy"":373.2,""angle_rad"":3.021,""angle_deg"":173.1},{""word"":""电视"",""x"":458.7,""y"":130.8,""cx"":478,""cy"":148.2,""angle_rad"":-1.006,""angle_deg"":302.4},{""word"":""肩膀"",""x"":465.7,""y"":139.8,""cx"":485,""cy"":157.2,""angle_rad"":-0.96,""angle_deg"":305},{""word"":""鼻子"",""x"":497.7,""y"":154.8,""cx"":517,""cy"":172.2,""angle_rad"":-0.817,""angle_deg"":313.2},{""word"":""斧头"",""x"":98.7,""y"":319.8,""cx"":118,""cy"":337.2,""angle_rad"":-3.086,""angle_deg"":183.2},{""word"":""风景"",""x"":177.7,""y"":361.8,""cx"":197,""cy"":379.2,""angle_rad"":2.953,""angle_deg"":169.2},{""word"":""熊猫"",""x"":383.7,""y"":387.8,""cx"":403,""cy"":405.2,""angle_rad"":0.806,""angle_deg"":46.2},{""word"":""骗局"",""x"":553.7,""y"":216.8,""cx"":573,""cy"":234.2,""angle_rad"":-0.479,""angle_deg"":332.6},{""word"":""桌子"",""x"":384.7,""y"":247.8,""cx"":404,""cy"":265.2,""angle_rad"":-1.004,""angle_deg"":302.5}],""n_words"":90,""words"":[""骄傲"",""冰箱"",""兔子"",""反感"",""协议"",""嘴唇"",""剪刀"",""长颈鹿"",""制度"",""过失"",""友情"",""方法"",""蚂蚁"",""沮丧"",""沙发"",""暴力"",""筷子"",""概念"",""麻雀"",""椅子"",""买卖"",""魔力"",""结果"",""敌意"",""纠纷"",""关系"",""铅笔"",""愤怒"",""团队"",""洗衣机"",""大腿"",""慈善"",""手指"",""性质"",""猫"",""眼睛"",""床"",""鼠标"",""微波炉"",""原因"",""锤子"",""勺子"",""缘分"",""胳膊"",""老鼠"",""兴奋"",""耳朵"",""社会"",""牙刷"",""过程"",""光彩"",""空调"",""乌龟"",""地位"",""创伤"",""死亡"",""快乐"",""身份"",""婚姻"",""错误"",""脚踝"",""老虎"",""冷漠"",""疾病"",""扫帚"",""难过"",""钥匙"",""天堂"",""义务"",""数据"",""爱心"",""内容"",""现象"",""柜子"",""奇迹"",""恐惧"",""膝盖"",""舒心"",""债务"",""大象"",""作用"",""纪律"",""电视"",""肩膀"",""鼻子"",""斧头"",""风景"",""熊猫"",""骗局"",""桌子""],""distance_matrix"":[[0,0.09685912834600899,0.42420441611179266,0.11068324778779981,0.43226883836568647,0.12639220280634275,0.4928970220133181,0.4381721931022623,0.0782585833213285,0.4800291541538333,0.2011670342227382,0.4452807176395972,0.024634271431151298,0.48175520796343074,0.3537923290004913,0.430023075137021,0.01725126362282325,0.4023297629148066,0.43683577772516147,0.4466213183476893,0.15580173854799415,0.2553488469071401,0.1568445181586523,0.06871488617933431,0.2662275516700199,0.24777366456041663,0.32262681610056265,0.43764856832180493,0.3781208702444871,0.05461203388882132,0.3124693422897573,0.254517805244692,0.5590019101200363,0.4590746904060605,0.29846845058695687,0.43588985386988266,0.2546871226751713,0.4230740082428199,0.07178079539015797,0.3099158972991418,0.05142659860741264,0.3973777663416217,0.5876974375555293,0.44581883718313686,0.6046158818884064,0.5159597953780694,0.44227702676969866,0.47382358750435194,0.6092492045854087,0.33943984936116195,0.2909850493778924,0.32723443672858304,0.3245556084436717,0.6576515638673747,0.2905293002360132,0.5578608392949019,0.5707055713121136,0.6159739858407123,0.6589436472318955,0.5236888847986662,0.11736460965970318,0.551254226410992,0.39677268020374273,0.591918684495711,0.297753234438912,0.6395820243790612,0.5539412065055368,0.2611896904752658,0.33422072816517095,0.5919869746803129,0.32318507841564764,0.63337516179555,0.5206266889885948,0.42700888352347793,0.25276996266870205,0.22631116055948322,0.5339137433817098,0.2270083781649529,0.3548482184690814,0.22652757034406423,0.6114423571848795,0.38696964803953426,0.48132426104337983,0.4706257693079322,0.46615802712248433,0.46644909275218066,0.3243409929923241,0.05191458563671584,0.42915020465004877,0.27591785635683735],[0.09685912834600899,0,0.3263552853751336,0.20924462591155724,0.4892380538727473,0.16815248247238224,0.3855615117054445,0.48807431142824953,0.10762367941289903,0.5348196474032408,0.10256031974419864,0.5111724192977194,0.06090077150700279,0.37322891361603416,0.4138197530147378,0.32222969037872967,0.0916922603252029,0.5053650746583352,0.542824894482003,0.548798615457418,0.23917074083527412,0.3499834117428557,0.2611141462605543,0.05109916682915093,0.30934258595600184,0.14858561229467224,0.2897567914707209,0.5364137158122009,0.28271300802439053,0.15084435528216322,0.22533487134698904,0.2615152356145423,0.5913293606436937,0.5514761530106801,0.27860619199944575,0.3379582005673994,0.1635375074630506,0.40653690536069753,0.14218019509746435,0.39725493067981554,0.06551064825378275,0.46083366942131504,0.5829828514428117,0.3656646002285649,0.6319697187359175,0.5651090539813239,0.3498230935748864,0.5719501083525045,0.6470340221091561,0.3788571300922938,0.2318383040331368,0.3958538838641483,0.3004887488357936,0.6388319314494593,0.25782659720787,0.48987285184469087,0.5116452507246885,0.6134547458111942,0.6493532165883634,0.4194708479950973,0.20725316889035125,0.5753980672916321,0.43770518645171613,0.530198917742701,0.3598781889473102,0.6236279057222032,0.4545653370432121,0.18839520264531212,0.3589895783949832,0.5673203350615538,0.4064352466580522,0.5437696078131797,0.4266034656748843,0.5224048527703912,0.2381776750029426,0.18542434557889373,0.42788600611787214,0.20369391876025247,0.45359454774263114,0.1487141633986804,0.5991044106486036,0.43867590194120176,0.38360776498957394,0.3714140529836267,0.36200774864546936,0.509214979913326,0.37562773920922177,0.04882140381733092,0.32067132743189003,0.1977934868495924],[0.42420441611179266,0.3263552853751336,0,0.5446455705764605,0.6292098887716354,0.3992566487188995,0.12710872069710896,0.609332183959753,0.37379075458054056,0.6602236598669964,0.212761773376033,0.6713190944620935,0.39281118890567723,0.17014710187284268,0.5781366807578812,0.11439568731560686,0.40608078817081156,0.7793180049487702,0.828882715931579,0.816679783400048,0.5771508470747742,0.687463675678651,0.5926801097097758,0.34616995134476725,0.46761965072598805,0.16619343653809737,0.5169086558051669,0.791920866864256,0.3187549486837337,0.4541092351029447,0.11191922081380491,0.5527351319636217,0.6423926278118626,0.7840414153055606,0.5309329968649531,0,0.1591071743212779,0.36805354015612596,0.4226174619173978,0.7351526379226656,0.40326836974933744,0.6236218226856007,0.5245784312018683,0.10861292128900858,0.6610743720965082,0.669288533617621,0.03422210702521638,0.8226841029989793,0.7046514436514478,0.5028375499973894,0.19673925768313422,0.5853372462859499,0.5403358713365227,0.5241939436944268,0.49517681782668405,0.23816220759250548,0.2879608563420953,0.5553673905656402,0.5621668796975804,0.10774238962570365,0.48664166271023984,0.6056851468969799,0.5475831784194407,0.29237785569169567,0.5430107145669214,0.5211032193634264,0.11831937034969987,0.1786211538811138,0.4546205918119472,0.44888334308220135,0.7436169502807489,0.2140209221101114,0.09205300429188322,0.7673188833975757,0.5088216187311732,0.4372577803505676,0.13403611984056596,0.4734114864502481,0.7155331695481127,0.1967639789154052,0.5131691935829182,0.5760362458383458,0.045606320841566635,0.03571317826994978,0.06423181010721507,0.6064942174304764,0.5290566242995058,0.36099288583285044,0.17136159188199832,0.1582830522836164],[0.11068324778779981,0.20924462591155724,0.5446455705764605,0,0.46498928484609087,0.215153859024288,0.6049920066942018,0.47940786356368603,0.1885367980044034,0.5130513689692248,0.3204192937425815,0.4649514485845011,0.1401490710750317,0.5881421609749364,0.38789920116192234,0.5410448350680332,0.13452152144452317,0.3453374308135267,0.3656031464574081,0.3907301998955162,0.04964610281634248,0.13299812155652213,0.04510949672777915,0.1910749593502587,0.3288195121493201,0.36715350237589534,0.32977909799749366,0.39298710598984377,0.4542226112144077,0.11537275950549919,0.434676492568565,0.2278219227535001,0.6146364513425865,0.42990932031041323,0.2945056746379406,0.5563207264136405,0.3762359204788966,0.5224120886061583,0.15650785575775877,0.18943552374075862,0.13704605694496128,0.42351231573378595,0.6750246319356531,0.567985185708839,0.6639175970591941,0.5544033468337622,0.564103152748145,0.4293904892465175,0.6575283782004396,0.39887716741360657,0.41076618645626295,0.35158270208844283,0.32169301346401824,0.7535815534654787,0.3018763155082968,0.6776664572175966,0.6878007779391178,0.7010764478256188,0.7485012004458599,0.6404004010742232,0.1496271247897794,0.6152593454263671,0.4506337282789966,0.7097709591353207,0.3343845518189469,0.7338785905432386,0.6739282260912719,0.3832556512702629,0.40793912239152447,0.6925599729562758,0.20476783917290475,0.755657663398968,0.6422606581496461,0.39212270518945574,0.25095163905939805,0.2578839483323811,0.6484230038696523,0.24032351980755504,0.3151644620063771,0.34889541516502254,0.7037463152130189,0.4291618932528749,0.6018988776547407,0.5905961726824551,0.5829308589644963,0.514522280406524,0.37196847860545024,0.17407903331311023,0.53331133450128,0.3982365853386169],[0.43226883836568647,0.4892380538727473,0.6292098887716354,0.46498928484609087,0,0.309739602723825,0.757870471080073,0.023772811546671248,0.3709934988095589,0.036601727492095976,0.5074040429953703,0.039326064567740626,0.45277984642622265,0.779078568771125,0.06703092287259836,0.7138359457395766,0.41185036586025603,0.3079310072600961,0.3673472758181661,0.3136682797562312,0.5243093189063038,0.540058101252902,0.4486343438587891,0.42680622145401637,0.17088946621891282,0.530476986953781,0.7665578298151079,0.2710401811163066,0.7726863500847029,0.37040731677077643,0.5167965400474787,0.6903688418326791,0.1627490904133703,0.2201252389065278,0.7416564355367719,0.6376902895099216,0.506049769937143,0.30180235741522005,0.3503892334040012,0.6039864042355326,0.4920921812276717,0.033940635592619416,0.3242489729694614,0.5573992430711867,0.21454539711292647,0.07884389310881101,0.6124730979466002,0.2798604395527574,0.1880859189563455,0.11544371060771909,0.421985212880436,0.1023119836187681,0.7680824982693696,0.4275723206767348,0.7343933051654056,0.571936313137061,0.5405971743843848,0.33365419394862855,0.3914586096037521,0.7480808256979588,0.3122308119085505,0.18725233647780637,0.07469327973002877,0.5661421868686591,0.12303950109360988,0.40344218280451816,0.7340617176610482,0.4547973630900858,0.16327264224195198,0.40836868846083146,0.6281618171960557,0.7343846719430882,0.6751878165885431,0.23478282120237554,0.6957429038537993,0.6683344434024991,0.7747251292401144,0.6709606440651702,0.25120656946877484,0.4609536092036395,0.3700801463950676,0.0426283608021381,0.6685522603938043,0.670084478366898,0.7022322103601959,0.06484023956076035,0.10256031974419864,0.4342087137397159,0.7451231538345012,0.4737008564697539],[0.12639220280634275,0.16815248247238224,0.3992566487188995,0.215153859024288,0.309739602723825,0,0.5003478674854036,0.3102521915930094,0.04964610281634248,0.3558309783236777,0.2105237054642817,0.33156264709683997,0.136751281297265,0.5051657202625616,0.2339818410442526,0.4441460553919108,0.09980975597096588,0.3691375430492937,0.41794137351864397,0.40797365734066476,0.273502434278391,0.3477216974640985,0.23668841131780272,0.10548831791450312,0.13275752418897696,0.24727669215460432,0.4522470243429368,0.3867441956765339,0.4577044779888158,0.08811636966754793,0.275913377217345,0.3922343447220831,0.4233287541850783,0.38952073687147865,0.4319698665093004,0.41035127032614505,0.2358363543909133,0.2955766360247457,0.04802846938255109,0.4106289431572753,0.17759625931678252,0.28108071496214054,0.45264114955523,0.3837771894082217,0.46782655526974926,0.3878605129592798,0.40338011506892235,0.419794155251236,0.4756211928751583,0.20505331926404244,0.2154092672331183,0.21748163594807096,0.4571690097539946,0.5275250240404996,0.41976056647085225,0.47231881960779615,0.47392108680505074,0.480144412863547,0.5250154508844617,0.5134857162472009,0.08278510708956169,0.41378039405199574,0.26351659492796925,0.49750206660157154,0.18029255214284712,0.5083041064187301,0.5262046472000612,0.21050051519534727,0.19624421581425694,0.46572649259591165,0.42867070480326197,0.5796548308087387,0.48075169447896615,0.3661763263106817,0.38696964803953426,0.35081947692376286,0.5316423752090541,0.35823815290639965,0.307265286013561,0.19239217494325092,0.4788855814708783,0.2600732837872482,0.45246910787657724,0.44640694527130237,0.4583846025720052,0.3344887628691776,0.19677015876538734,0.11316359451729867,0.46069188314345616,0.23028341261496976],[0.4928970220133181,0.3855615117054445,0.12710872069710896,0.6049920066942018,0.757870471080073,0.5003478674854036,0,0.7401295792799854,0.462911954031819,0.791327125543122,0.28563895196778266,0.7976787625802393,0.45777033956025176,0.04733409786349678,0.7018838728614295,0.052779658293674335,0.4811308654756425,0.8796014892547342,0.9248096374301791,0.9195792513047365,0.6257412772573964,0.7406348802965314,0.6581498495158679,0.4230740082428199,0.5887517769416125,0.24291716244761505,0.4938458505193119,0.8986685112093812,0.2583661709673282,0.5360087245525755,0.2295582828404416,0.5572611440152438,0.7798340935997116,0.8972718370809036,0.5176879343731816,0.1231828509677709,0.25347048226441293,0.5065993604132328,0.5113497811742173,0.7797234152394957,0.4565834139813197,0.7486621695286249,0.6624669104808796,0.24146596089072458,0.7994959513638613,0.8029062891703642,0.16374323727363876,0.9312679757906767,0.8421494427294437,0.630783803090862,0.3247011623761189,0.704610081022266,0.5202877784910166,0.6573108231265614,0.4793895012577386,0.3540918071437997,0.40910406719461345,0.6930079843039989,0.6976269192809517,0.05829852267017979,0.5788700680439882,0.7438198833570492,0.6785628597198684,0.4082858777737016,0.6623197588270331,0.6556913765049139,0.13055572617369243,0.2938950226599123,0.5848062120320752,0.5832059342310417,0.7840300828978009,0.2635821203398919,0.1645125846946546,0.8769380994213043,0.5068304618971279,0.4366289376312928,0.04030161214268245,0.4753435440832108,0.8191778121886936,0.29866360082371657,0.6494409049441845,0.7039929546816222,0.12180998772149781,0.10706089735863379,0.052599559856283826,0.7399667829139437,0.6532780588715456,0.4339399521841392,0.08798720975769453,0.27405298184190857],[0.4381721931022623,0.48807431142824953,0.609332183959753,0.47940786356368603,0.023772811546671248,0.3102521915930094,0.7401295792799854,0,0.3715048320693049,0.03960309779208714,0.49840192411842615,0.07364295212708,0.4563164913918992,0.7635543341864252,0.0808146010505906,0.6981261800323477,0.416171654237143,0.3415649858193746,0.40135783637477473,0.34849238111772274,0.5395886087215337,0.5615761833860834,0.46668343349333413,0.4263241555989169,0.1670675750294081,0.5188037134579639,0.7716394808030048,0.3060117782257261,0.7665859689519828,0.37852053788908296,0.499791559721259,0.6997956982317538,0.1338946082066027,0.2555803043216234,0.7483096875624664,0.6174335941758837,0.49288425678994535,0.27158073444136294,0.35519599511576605,0.6261837109905419,0.49634964745068394,0.06346434645011902,0.28881944350930977,0.5330938313074686,0.18597907998255245,0.06617528470290032,0.5906432261014593,0.31527578405970186,0.16712521870258984,0.10205177973726133,0.40374307976847096,0.12226276084989812,0.7744007220209004,0.39212270518945574,0.7392946604492445,0.5420623802097136,0.5091754098410436,0.2985182878504999,0.3563108724533733,0.7276078548881844,0.3228733363788483,0.154295146044379,0.0500647530939906,0.5345768049621321,0.13346037056942212,0.367992473053335,0.7109145980731029,0.43955889422636013,0.14364672633312886,0.3733594140497928,0.6500388243432077,0.7067649522402053,0.651299111903115,0.26976493609349433,0.7025497171818472,0.6718338019957767,0.7550446614556343,0.6764488455309251,0.2832245229179953,0.44850279552590505,0.3346227024263827,0.03960309779208714,0.6467973495122857,0.6490978797963279,0.6832055126131829,0.03153373105220737,0.10237976527245074,0.4350861181174435,0.731554497203436,0.45789106178252564],[0.0782585833213285,0.10762367941289903,0.37379075458054056,0.1885367980044034,0.3709934988095589,0.04964610281634248,0.462911954031819,0.3715048320693049,0,0.4171580696215417,0.16651180121869372,0.39191848446972777,0.07917058671169716,0.46220570750231205,0.2948924920989188,0.40377718834686493,0.049330230053598455,0.4061455378143148,0.45021557945895496,0.44742450125743466,0.24119102313267776,0.330265415630917,0.22266208668960785,0.044859447715341505,0.19358173832752132,0.2084267962736979,0.39260094327428813,0.43026579998214337,0.39982991014875635,0.07144055728357666,0.25360162375406015,0.33823441679330496,0.4822379437480657,0.43918190521402295,0.37381414685060704,0.3852857752590313,0.2041420350009041,0.33314277017811367,0.03731673969730242,0.3894404580626465,0.11991482290495686,0.3416743704725582,0.49908082109211266,0.3762658064351048,0.5256559299805191,0.44905113178716866,0.3843598462278011,0.46468989084702983,0.5355498821675782,0.2652384764510751,0.2130370984671065,0.2766112816312079,0.39852873946871964,0.5677829206112103,0.3601000097288658,0.4789275945554152,0.4876384987067704,0.5277805927207369,0.569789113259669,0.48296767478385577,0.10428378356616248,0.4706978782322142,0.32393438086096454,0.5097711160416949,0.24064535416534502,0.5498405368784033,0.5032204718415528,0.1934750228593322,0.25247753123366806,0.5020758649168936,0.40494449450283965,0.5692904318865162,0.4629662371619168,0.41282558061926233,0.3293600835629266,0.29042271770718386,0.498126574652296,0.29943469675605483,0.348566587535522,0.16599054381901407,0.5219415552001766,0.3213953454324589,0.4293459478852523,0.4211675630765911,0.4263829725196144,0.3951325523435646,0.25809890646628053,0.05191458563671584,0.4147360905006233,0.21124140725445992],[0.4800291541538333,0.5348196474032408,0.6602236598669964,0.5130513689692248,0.036601727492095976,0.3558309783236777,0.791327125543122,0.03960309779208714,0.4171580696215417,0,0.5485773527200966,0.056885310733060454,0.49999552554205934,0.8148407594377195,0.1152104365898261,0.7494140368137033,0.4592470543598664,0.3383080376373037,0.39594238043247887,0.33871727126098233,0.572209949297834,0.585751384079628,0.49589048513075784,0.4726301217487047,0.21465925260477095,0.5696473096479043,0.8142467278752755,0.29552317662564764,0.8158407613620038,0.41848973597151756,0.551061971840046,0.7386219359000741,0.13041074850622414,0.2386000807538435,0.7896280679617356,0.6682378239675101,0.5439667039154946,0.3164860584189975,0.3978593043123565,0.6492284842204229,0.5395161638318432,0.07918476413825959,0.312234788854262,0.5824258621440813,0.18019187317271865,0.03422210702521638,0.6410066023680678,0.2991333265352289,0.14529660987183715,0.15266505486868542,0.45494370111467647,0.14998608510034936,0.8160041981193306,0.41556906375868685,0.782037927928671,0.586565880061704,0.5513915109151964,0.3173289375510802,0.3747486765189374,0.7783288438632285,0.3604982617394477,0.1633388961242806,0.10109637007542883,0.5764810256769081,0.1711151111894122,0.3915959882653506,0.7607042884368975,0.4908222634430917,0.19488296967374238,0.4048115187775116,0.6735711405045688,0.7535714533530169,0.7007637088588378,0.2596558208335045,0.7437312134248172,0.7156235060550744,0.8059448404888816,0.7187147551564019,0.28640916768208113,0.49946403703478753,0.3591633024656612,0.08462175635181328,0.697161836869381,0.6997015409817873,0.734241345856401,0.05441744149742639,0.14751301356378538,0.48056330794632673,0.7827209129730364,0.5091754098410436],[0.2011670342227382,0.10256031974419864,0.212761773376033,0.3204192937425815,0.5074040429953703,0.2105237054642817,0.28563895196778266,0.49840192411842615,0.16651180121869372,0.5485773527200966,0,0.5386367181039498,0.16866749152931296,0.28428407529025723,0.43941898810397634,0.22566074728760485,0.18575084869556904,0.5843157728748907,0.6280490623915376,0.6253576872452966,0.3532844169994059,0.46301780038593426,0.3695669023606387,0.12650411231032727,0.32583661880767656,0.03505635258180444,0.3550590315631957,0.6069925821457332,0.2603812257949923,0.2389652472994996,0.11405806529032562,0.35602371179839387,0.5781716246386888,0.6117296485980229,0.3552451490491286,0.22441456978306662,0.05181323093247694,0.35165716371910394,0.21440869484072902,0.5113990376895013,0.1797549858009583,0.48770299201384737,0.5318343885566932,0.2557971137490158,0.6121593051788057,0.5713599335178932,0.2356332990585209,0.6408037752256811,0.6380234756308036,0.3847044794724888,0.14824767403761788,0.43213243929729284,0.37222022556235024,0.572554019202681,0.3262485661574987,0.38582085363779633,0.413622921777388,0.563534600731166,0.5915600341936941,0.3113586813641924,0.2823320739089823,0.5540823928530625,0.44099541897543276,0.42991223746688645,0.3914905623069595,0.5604154785473383,0.3418238080948247,0.09502787939056863,0.3511285102684773,0.4974590560910947,0.5206775069543056,0.4297255005868705,0.31238190153569506,0.5878328230843071,0.32197111214792506,0.25637441491973734,0.3233389181064438,0.28538321509364883,0.5259507254408805,0.05776266389961787,0.5400137384603731,0.45361669655011744,0.2700531410724681,0.25849493617388164,0.25391221900121,0.5106917618118488,0.3943718716776758,0.13910189458849842,0.23850741863155656,0.09653821840325327],[0.4452807176395972,0.5111724192977194,0.6713190944620935,0.4649514485845011,0.039326064567740626,0.33156264709683997,0.7976787625802393,0.07364295212708,0.39191848446972777,0.056885310733060454,0.5386367181039498,0,0.46884901872702883,0.8165767504557636,0.08758574610065677,0.7516533822819798,0.4272642805926891,0.26973747260692366,0.3274776079796624,0.2708396292833199,0.5223976168365921,0.5273888305133613,0.4427705167981935,0.44839080987046076,0.20149964005611684,0.5645616143976696,0.7787412805635482,0.22772105347202812,0.7994975394230003,0.3810281070076521,0.5564499844239037,0.6965727790863987,0.1986526646302251,0.17293127598525296,0.7516989459341492,0.6801362174946475,0.5418413338644472,0.3520292432096919,0.3659307843356879,0.5897228784238712,0.5068453681333933,0.039326064567740626,0.37227055514629576,0.6034861276636709,0.24874497949022106,0.10173420408184321,0.6563878339900702,0.23328475101031163,0.21188191179702182,0.15718813776309007,0.4631941585490368,0.10637547132614673,0.7785098208568539,0.4757744929746102,0.7469439711192359,0.6218003749573455,0.5911776660581065,0.3800460793537209,0.43779404103261055,0.7905535209883138,0.32011271813754444,0.22921629004552196,0.12415361833268639,0.6167698107078925,0.1396136178199551,0.4516635486229628,0.7789596381460299,0.4929582905906988,0.20802846635378652,0.4586585681235491,0.6143628400639731,0.782784152656609,0.7207788924170933,0.19167763073461855,0.7057457866073145,0.6830942742908358,0.8164103154582462,0.6829440742985894,0.21872058295587307,0.4962152395842353,0.4185496239276524,0.0849555778283685,0.7123109142059793,0.7131467018559839,0.743398608442104,0.11056739324660118,0.13377067259113412,0.4539764670187378,0.7806019055108098,0.5123438649531563],[0.024634271431151298,0.06090077150700279,0.39281118890567723,0.1401490710750317,0.45277984642622265,0.136751281297265,0.45777033956025176,0.4563164913918992,0.07917058671169716,0.49999552554205934,0.16866749152931296,0.46884901872702883,0,0.44577378339836854,0.3749486389964664,0.394635101495268,0.030078528552265747,0.4376621859919434,0.47288539977891886,0.4817480285989344,0.1779634140980137,0.28364356574921423,0.18981946486260998,0.046741803442405916,0.2806844362627528,0.2154092672331183,0.3041114799606836,0.4718081965630639,0.3437136623619373,0.08581816504712457,0.28428407529025723,0.24777366456041666,0.5717177534178066,0.4913321518574152,0.2836261175029145,0.40448663206267743,0.22485066180713464,0.4186903278215499,0.09124268129191082,0.3350799389015221,0.02923724321237574,0.41993370729388785,0.5881099457216998,0.4205212711767215,0.6158179844085516,0.5341616008589165,0.412807372853176,0.507826374352597,0.6239461700620489,0.3533691180741787,0.2714215207323224,0.35119951521291687,0.30873608777511224,0.6535743931831677,0.271662580941866,0.53699569719685,0.5528789017011363,0.6172206042264748,0.6579594288935903,0.4899807132942337,0.1471484642774117,0.5611985376731422,0.4116404468990131,0.573259170254867,0.31925357404860655,0.6364095015534532,0.5221467104957696,0.23700459007396177,0.3430460957051262,0.5857406028819495,0.3466160476040332,0.6052175715027905,0.49074791489779795,0.46014888444292723,0.23884187027172346,0.20395692652540612,0.4994287528427533,0.20980949411733774,0.3889166458409186,0.2003423505346719,0.6093881887700586,0.4054636212400004,0.45006495318670614,0.4388074602768367,0.432445804478444,0.4823083576309191,0.34226446346323336,0.027958091692742094,0.39297357662158083,0.2502640548033812],[0.48175520796343074,0.37322891361603416,0.17014710187284268,0.5881421609749364,0.779078568771125,0.5051657202625616,0.04733409786349678,0.7635543341864252,0.46220570750231205,0.8148407594377195,0.28428407529025723,0.8165767504557636,0.44577378339836854,0,0.7191361573880539,0.053810531073315154,0.4731830542794427,0.8799771963195046,0.9224461939318518,0.9212680952780333,0.6036033837672192,0.719136157388054,0.6428749769051886,0.4174913735791053,0.6049335134597055,0.2465743362150998,0.4481891669702321,0.9028165068191929,0.20681143338132607,0.5302298213678195,0.25312045411165557,0.5195098888630215,0.8124229863551877,0.9056347295238233,0.47468978339553075,0.16903140161673316,0.2641197756555986,0.5434192997997126,0.5094251455404774,0.7543470907023182,0.43953605537348583,0.7666852754216203,0.7053219044664385,0.2893334203290744,0.834893308114085,0.8292872094695927,0.21177240611533854,0.936404330118232,0.8747144324178033,0.65211662756769,0.3504034645009612,0.7184113360974228,0.47518481654126227,0.7057242393217529,0.43615456876673453,0.40862928224079087,0.4625426639628243,0.7363521903281606,0.7439920779186747,0.11697471433003889,0.5776210178340002,0.7783206907705817,0.7025064291087928,0.46308835151231714,0.6764825411740955,0.702903138291424,0.18946754682425132,0.3126123763044328,0.6085891236327935,0.6306354096822648,0.7569676774621834,0.322495778235682,0.2220345901016859,0.8830232478587376,0.4676250259997855,0.399206489480413,0.0938748439773131,0.43801466838421554,0.8219144866551352,0.3101081085015747,0.6948919994614331,0.7248425917379838,0.17638778256569798,0.16009240162672103,0.10339169928444814,0.7664154632920974,0.6712681682419357,0.42620649805694877,0.04520015113118617,0.2939877518088963],[0.3537923290004913,0.4138197530147378,0.5781366807578812,0.38789920116192234,0.06703092287259836,0.2339818410442526,0.7018838728614295,0.0808146010505906,0.2948924920989188,0.1152104365898261,0.43941898810397634,0.08758574610065677,0.3749486389964664,0.7191361573880539,0,0.6544626051769994,0.33380710059539903,0.27564898439976016,0.3366404086439734,0.2919379866269151,0.44775197041830306,0.46955086950512276,0.37420158373001244,0.3511285102684773,0.10277435825373425,0.4658748765724267,0.6881045833850296,0.2525811377089595,0.7006443618563137,0.2916992367811273,0.4609863147713354,0.6117461793265497,0.22387378818238637,0.2168060903489988,0.6629883713647572,0.5873577646516165,0.4438322551792424,0.28645670000155127,0.27229382338273633,0.53438811496045,0.413974126108611,0.036601727492095976,0.35089054238764583,0.517395839417027,0.27562656704569743,0.1548762174306221,0.5658210649444891,0.27079858977696547,0.25959884429370905,0.07376364299785036,0.369725676579261,0.0321258022282834,0.6894434381081207,0.4511711907101642,0.6559847103085985,0.5495697660019506,0.5251570457428075,0.3663399323557303,0.42306511906208266,0.6975615354947987,0.2336670173883387,0.23718582275498679,0.07677108645061144,0.5510734174029049,0.044378984678851915,0.42738165467900474,0.6897300030610815,0.39646980074710336,0.12650411231032727,0.41925268399070553,0.558098279815282,0.702638088852349,0.6330895232850206,0.21800381719996964,0.6170669609281461,0.5903223343887445,0.7224302349393275,0.5924562607357055,0.21095807576803957,0.3980448442300781,0.39352393644018197,0.03511144017127259,0.6213202826130986,0.6211167437867842,0.6489769989705106,0.12014954415049917,0.037448007520369336,0.35766311739832235,0.6822315726749005,0.41616262164974815],[0.430023075137021,0.32222969037872967,0.11439568731560686,0.5410448350680332,0.7138359457395766,0.4441460553919108,0.052779658293674335,0.6981261800323477,0.40377718834686493,0.7494140368137033,0.22566074728760485,0.7516533822819798,0.394635101495268,0.053810531073315154,0.6544626051769994,0,0.41917196520986066,0.8214105495922541,0.8653772110567196,0.8620636437657031,0.5613042136330475,0.676244764433675,0.5944976777863418,0.3618250009279242,0.5404058753511675,0.1852216417587609,0.4372089976126674,0.8424515122399499,0.21110267767107246,0.47488044401996726,0.18765987037599052,0.495595996826844,0.7475109144059612,0.8435544220355334,0.4589652202123248,0.11609057965395582,0.20031197014142868,0.4798588361527687,0.4517469472736128,0.7152762691302872,0.3925053409253848,0.7018910940170435,0.6442924036739439,0.23461028110383988,0.7706010909365897,0.7637935800913659,0.1591825827867747,0.8756240950220083,0.8097754465442323,0.5868263707711397,0.2849666296549577,0.6545148160628534,0.46308835151231714,0.6489574999917055,0.42097705201674823,0.36186638559917567,0.4132805212338026,0.6755703045163354,0.6853323013503885,0.10733179780702319,0.5196650730146591,0.7138306190461045,0.6370452473005613,0.41638837915688903,0.6124669061943976,0.6450342982307867,0.1716780087866912,0.24735627181092604,0.5431221767445099,0.5731358301973833,0.7196665318904125,0.30075273700141947,0.1873300263222174,0.8218186693265886,0.4459539719246542,0.3751484981092644,0.10140434629128449,0.4136986368777415,0.7621506001044029,0.24625989946106666,0.6356159314297957,0.6596252171400344,0.13588088132149514,0.11778318381786651,0.06577718715336318,0.7009246148333662,0.6064379504131726,0.3719684786054502,0.046741803442405916,0.22859518743963078],[0.01725126362282325,0.0916922603252029,0.40608078817081156,0.13452152144452317,0.41185036586025603,0.09980975597096588,0.4811308654756425,0.416171654237143,0.049330230053598455,0.4592470543598664,0.18575084869556904,0.4272642805926891,0.030078528552265747,0.4731830542794427,0.33380710059539903,0.41917196520986066,0,0.40200292717831093,0.43979863242848366,0.44552379507393475,0.18301105440364748,0.27884572489649534,0.17625074288455633,0.048243810579937874,0.24196923945897142,0.2317113144078352,0.3437861484147454,0.4338770732684273,0.3824426348080917,0.04753021283574533,0.2914613612648981,0.28082539686257674,0.5341616008589165,0.45141882593847366,0.32159253191028925,0.41774943122022823,0.23554994606296345,0.3941560862769057,0.04983484799945361,0.3352173636697628,0.06858660474614704,0.3785040308058286,0.5592433887659112,0.42227918967940953,0.5791426732446291,0.4940318364143049,0.42203273778174344,0.4696398670810187,0.5853782414784557,0.3150186022959834,0.26485210434284356,0.3095351402152766,0.3472195515883081,0.6287655227663074,0.3114384256587235,0.5318320184350978,0.543539960622757,0.5876587503587468,0.6303164483601732,0.5087424157605156,0.10658260547326658,0.5252650167212737,0.37287734617964985,0.5650152441022446,0.2779931525113851,0.6107473496872707,0.5360651708970803,0.23752721721761713,0.30767295285409774,0.5630506651644595,0.3493060284887354,0.6116717875959663,0.5006371099499245,0.42102171057204346,0.27625359323976095,0.24483263179924647,0.5204911506893105,0.2487647645263623,0.35097935463472146,0.20444026298047077,0.5826946692263548,0.36515901611238344,0.462911954031819,0.4529268199045532,0.4513298038021202,0.4431275373843789,0.3021186114996567,0.035522548135897954,0.4219763013816168,0.2531350478549944],[0.4023297629148066,0.5053650746583352,0.7793180049487702,0.3453374308135267,0.3079310072600961,0.3691375430492937,0.8796014892547342,0.3415649858193746,0.4061455378143148,0.3383080376373037,0.5843157728748907,0.26973747260692366,0.4376621859919434,0.8799771963195046,0.27564898439976016,0.8214105495922541,0.40200292717831093,0,0.0493091137072612,0.033749656638829055,0.38151983918975646,0.329526240932987,0.2962718094804843,0.45259398318049227,0.33455945964760575,0.6251266131714227,0.685953009130646,0.04969334352539569,0.7916847859707187,0.3428390401477016,0.655724189978266,0.5778483147098975,0.47965962023491726,0.11265697959802601,0.6491505145349518,0.790240336158464,0.6163125397645748,0.5638749040670813,0.35901737971724956,0.3774626729483475,0.46078732089645047,0.26726392259281,0.6364492539319917,0.7502801339038545,0.5301347276584272,0.38268116269421026,0.780291291627045,0.08007703572519115,0.4908478983220425,0.3529454159459857,0.5842898353442887,0.23773389553152607,0.6760106519273907,0.7378489311776758,0.6587092575874293,0.8111903020554869,0.795538378422527,0.6495636491066764,0.7070428186256886,0.894290756907219,0.2907679088066457,0.5068677266843691,0.36288919920365365,0.8213100348903871,0.2675547088905871,0.7139318195355,0.904606195276751,0.5893436281834068,0.39996762445048506,0.7061550621446289,0.4021897220605145,0.9451936852820707,0.8558712089002528,0.07469327973002877,0.6069191805890239,0.6131517544469958,0.9122755645775524,0.5973217448077147,0.056885310733060454,0.5732151232200821,0.6800840781799831,0.3168940466818965,0.8313464963933793,0.8262118510683742,0.8391629716952289,0.38425900056817164,0.30808412853123307,0.44673865392088113,0.8316566359835796,0.6095292155510142],[0.43683577772516147,0.542824894482003,0.828882715931579,0.3656031464574081,0.3673472758181661,0.41794137351864397,0.9248096374301791,0.40135783637477473,0.45021557945895496,0.39594238043247887,0.6280490623915376,0.3274776079796624,0.47288539977891886,0.9224461939318518,0.3366404086439734,0.8653772110567196,0.43979863242848366,0.0493091137072612,0,0.052504304182697026,0.3937781854925242,0.3254853037103295,0.31238190153569506,0.49339716456901045,0.3932122637758826,0.6702639573845394,0.7012228275857982,0.0927861692354392,0.8231205340874395,0.38134288647803155,0.7055033423199012,0.5890349089825175,0.5377910321913508,0.15794924486722747,0.6627878571977264,0.8399741021577991,0.6634922581869147,0.6240110196785745,0.40195621527744824,0.36519319856671223,0.4922711458166204,0.3274548180817383,0.6971963651874322,0.8045003743179373,0.5877812512500958,0.43963882110997304,0.8317742453068686,0.10828318552360966,0.5464164537527307,0.4136713809942304,0.6374442567228127,0.29860548380064744,0.6891255078955127,0.7987269654956042,0.6755834253246409,0.8690049199083892,0.8545114910620437,0.7100208945516066,0.7675635860729512,0.9423988127192666,0.3342542438603316,0.566160021743087,0.4238023036027952,0.8802256540144777,0.32769403568226696,0.7747939256900853,0.9554443772030304,0.6396868497992135,0.46024443200583987,0.7671220734556387,0.38896809330350385,1,0.9081268098628759,0.12620548513652174,0.62239388440237,0.6351699916770596,0.9591906634825293,0.6161607260369225,0.11657359046932249,0.6214423745005927,0.7409515909021809,0.37771086789324493,0.8818605704553779,0.8760257926459988,0.8866270189123547,0.443820943028003,0.3687652654279394,0.48586036222454326,0.8726832979529016,0.6596712701349264],[0.4466213183476893,0.548798615457418,0.816679783400048,0.3907301998955162,0.3136682797562312,0.40797365734066476,0.9195792513047365,0.34849238111772274,0.44742450125743466,0.33871727126098233,0.6253576872452966,0.2708396292833199,0.4817480285989344,0.9212680952780333,0.2919379866269151,0.8620636437657031,0.44552379507393475,0.033749656638829055,0.052504304182697026,0,0.42631018541956833,0.3707552601923491,0.3413616226630682,0.49506815580210356,0.3623152871108099,0.6654227287055585,0.731199533728415,0.03153373105220737,0.8362256146030043,0.3863107102003657,0.6931034927373739,0.6226665701266585,0.4808098965753302,0.0947286867853807,0.6942577101072879,0.8274643017591238,0.6554891519939139,0.5862778089075222,0.4009342401276204,0.4160790611745407,0.5055301068536634,0.27650513922467,0.6474528806303443,0.7834669017600565,0.5299593548641655,0.38132076178700847,0.8161275325895232,0.044859447715341505,0.486344938777885,0.3731761989741122,0.6189148490163344,0.2577465241841344,0.721078254625638,0.7499592684502028,0.7040456020982024,0.8391376114080408,0.8210335569005539,0.6585790590882324,0.7163338507812823,0.9325444516232488,0.3327474839812107,0.5113257669410475,0.3766018649386647,0.8469086653219524,0.2915983748599807,0.7258951893531518,0.9408465067836828,0.6264204586744572,0.4224194266055299,0.7224025967675733,0.44050925035283434,0.977459648721628,0.8909263434929395,0.06749188865748963,0.6521598055520479,0.6585790590882323,0.9512638886339133,0.642725880408931,0.08946577551067782,0.6118190126290107,0.6921670427704151,0.32978004114336745,0.867923670189343,0.8633350761605307,0.8778802437952005,0.390083040975444,0.32897553424284437,0.48978359179732134,0.8735746754683721,0.6467195810654601],[0.15580173854799415,0.23917074083527412,0.5771508470747742,0.04964610281634248,0.5243093189063038,0.273502434278391,0.6257412772573964,0.5395886087215337,0.24119102313267776,0.572209949297834,0.3532844169994059,0.5223976168365921,0.1779634140980137,0.6036033837672192,0.44775197041830306,0.5613042136330475,0.18301105440364748,0.38151983918975646,0.3937781854925242,0.42631018541956833,0,0.10389434392429801,0.07505046415074614,0.23419149953507212,0.3901271256946434,0.39944155802135684,0.2959118555079071,0.4334605474161314,0.4507590991962944,0.1739680463074306,0.47315648541424077,0.18467132807352532,0.6756396545232589,0.4755233727836341,0.2573481957229305,0.5887346131329376,0.41266168259935504,0.5804363779299608,0.21408369520722995,0.14643313901814678,0.16221655495370732,0.48220142889360407,0.7353457993857827,0.610167583408578,0.7250576902937221,0.6140746989456479,0.6001580423814046,0.4692650291345439,0.717968329548818,0.4601898357674727,0.45835171597509694,0.41055572849105687,0.28380491318521917,0.8126558628376106,0.2711893631895392,0.7250716782686266,0.7381238686023864,0.7616576917581368,0.8086078847691212,0.6663101438766255,0.21095807576803952,0.6765592862029512,0.5117412424166552,0.7594022932410864,0.3947650677777574,0.7932402799489533,0.7048564231758014,0.42646530294410934,0.46900715849311275,0.7505303067397532,0.15697441228957304,0.7935618966357779,0.6773300056155211,0.4363760034021316,0.21732981192807316,0.23968373971809132,0.671522761382411,0.21468770753020436,0.3594445628842679,0.38998283043747584,0.7634147399723874,0.4895876777189995,0.6343709111465193,0.6219000095404882,0.6093052168793118,0.5751851868933892,0.43293571975601003,0.21591356392086059,0.5475071618829572,0.4399127487454169],[0.2553488469071401,0.3499834117428557,0.687463675678651,0.13299812155652213,0.540058101252902,0.3477216974640985,0.7406348802965314,0.5615761833860834,0.330265415630917,0.585751384079628,0.46301780038593426,0.5273888305133613,0.28364356574921423,0.719136157388054,0.46955086950512276,0.676244764433675,0.27884572489649534,0.329526240932987,0.3254853037103295,0.3707552601923491,0.10389434392429801,0,0.09948577585569313,0.3357479808136261,0.43785422286707554,0.5096203999783387,0.3866981198205355,0.38826413675319343,0.5631582416092615,0.2511869682146222,0.5791143281643251,0.26836086436764883,0.7046964003222536,0.4412429293914358,0.34533743081352675,0.6991127755844762,0.5201715308910488,0.6512991119031151,0.292716597817688,0.0542027260871165,0.2742828146233537,0.4951285264697564,0.7920438900252946,0.7126240029609494,0.7560520768743945,0.6303946988220478,0.7081263674446654,0.4212099701426307,0.739368417539503,0.5010744361819656,0.5542280966524685,0.4277335888258497,0.3694858006554673,0.8770946493106673,0.3667180004086583,0.8207670457785896,0.8289026387303531,0.8158002863215477,0.8665265067154306,0.7798145632489739,0.26505234036732434,0.7129618446627649,0.545466979966285,0.8514006380452102,0.42288433295033134,0.8561740686803611,0.8161660465294521,0.5278737138198939,0.5207210613499854,0.8205286994206692,0.07696020515758033,0.9001386325996732,0.7860608636895738,0.4001928758043204,0.31196822544590214,0.3469789901878975,0.7859042121555129,0.31736417378181564,0.32759912824828413,0.49355781953202404,0.824657609057732,0.5150728132704526,0.744755399074729,0.7329397896990157,0.7225899017845263,0.6012476946891661,0.4663736483091511,0.3186301747337845,0.663076196896433,0.5429201350530156],[0.1568445181586523,0.2611141462605543,0.5926801097097758,0.04510949672777915,0.4486343438587891,0.23668841131780272,0.6581498495158679,0.46668343349333413,0.22266208668960785,0.49589048513075784,0.3695669023606387,0.4427705167981935,0.18981946486260998,0.6428749769051886,0.37420158373001244,0.5944976777863418,0.17625074288455633,0.2962718094804843,0.31238190153569506,0.3413616226630682,0.07505046415074614,0.09948577585569313,0,0.23554994606296353,0.3309014848006257,0.4162318666139642,0.37839506653716315,0.3471199356495423,0.5109654210377156,0.14148372007881627,0.4793868780151252,0.27038215760880396,0.6066879868566847,0.38881373108918055,0.3412110767312202,0.6043650044400729,0.4227894642521947,0.5403358713365228,0.18263354913140914,0.1636771361558368,0.19176629453448776,0.40516396622686995,0.6837040123677417,0.6089815205229399,0.657249201754658,0.5390485483799572,0.6098505540562017,0.38308029243860625,0.6454853057047857,0.3969271883858998,0.4473817096640552,0.3346933718674154,0.36805354015612596,0.7671700401253705,0.35191588789303646,0.7129351786762097,0.7193758426878882,0.7081907916655323,0.7579859656057902,0.6914854131153181,0.1548762174306222,0.6115498486136669,0.4445867071175946,0.7421897628903511,0.3238307311017659,0.7465091407712482,0.7224600654491456,0.4245441484884629,0.413016715034413,0.7097638168511365,0.18367158183118823,0.7994975394230004,0.6883916963761494,0.34964131366044837,0.29936429961800776,0.31205975702751804,0.7006479787259344,0.29209386851663427,0.2727108535721387,0.3923236341367113,0.7152993052862623,0.4180463057006343,0.6497564867703323,0.6391506781259361,0.6339500502181528,0.5043675325619261,0.365138505151422,0.22004186675928522,0.5884255806323743,0.4407221468849276],[0.06871488617933431,0.05109916682915093,0.34616995134476725,0.1910749593502587,0.42680622145401637,0.10548831791450312,0.4230740082428199,0.4263241555989169,0.044859447715341505,0.4726301217487047,0.12650411231032727,0.44839080987046076,0.046741803442405916,0.4174913735791053,0.3511285102684773,0.3618250009279242,0.048243810579937874,0.45259398318049227,0.49339716456901045,0.49506815580210356,0.23419149953507212,0.3357479808136261,0.23554994606296353,0,0.24777366456041663,0.17208503139550335,0.3431332408445003,0.4803152865804959,0.34394918801529034,0.10137016814196662,0.2324036622349581,0.2993767238000376,0.5329519346020016,0.4923631600055516,0.3274548180817382,0.3578409511941527,0.17572907822878153,0.36413552449690234,0.08328830083757027,0.3898545244556049,0.0808146010505906,0.3980731395441611,0.5364225294199008,0.36552119252175486,0.5749107425576128,0.5036056090911524,0.3626380596178852,0.5153521414812018,0.5876093130840303,0.31824385651051024,0.21332926225158388,0.3331465059463704,0.35110365525474296,0.5986930012945979,0.31073599897055415,0.4794550777694815,0.4945893841550789,0.5661265809019568,0.6050755588346189,0.4492076794674193,0.15084435528216322,0.5190149365348058,0.37710168049612586,0.515111940362975,0.29709894559693545,0.5820983601678772,0.47614696989315386,0.18103594186429725,0.3013088568600711,0.5297803566203033,0.4024790876338367,0.5531389634416555,0.4411575962536556,0.46460267301527586,0.28436240979839583,0.23958635052344077,0.46152018573227566,0.2523214353558909,0.39788132191751363,0.14613957150161216,0.5558510681647709,0.37661430596439327,0.4030354702945331,0.3929990432921001,0.39186102877132806,0.44853918499681533,0.3134415251340454,0.007101998467078646,0.3677345258169249,0.1955305211697515],[0.2662275516700199,0.30934258595600184,0.46761965072598805,0.3288195121493201,0.17088946621891282,0.13275752418897696,0.5887517769416125,0.1670675750294081,0.19358173832752132,0.21465925260477095,0.32583661880767656,0.20149964005611684,0.2806844362627528,0.6049335134597055,0.10277435825373425,0.5404058753511675,0.24196923945897142,0.33455945964760575,0.3932122637758826,0.3623152871108099,0.3901271256946434,0.43785422286707554,0.3309014848006257,0.24777366456041663,0,0.3514585654414711,0.5964538720167032,0.3293270312532904,0.5901232955987661,0.21268714802287686,0.3484986400806232,0.5318059464153796,0.28122148485407,0.3094388775181894,0.575237865520834,0.47723371618625277,0.3294545010876235,0.22427266633889834,0.18285881587143293,0.503680602332865,0.3213141170619606,0.15082057565227525,0.3429698261427259,0.415605243151996,0.3277547625138684,0.24415377854029596,0.45822288797657684,0.35514771252018706,0.3317352410596945,0.061536884933948564,0.2599784621742264,0.10637547132614673,0.6007641115324702,0.4320830931395336,0.5639868019834059,0.46530537054090015,0.44963511924808847,0.36626836342528235,0.4175994165849695,0.5869361304188911,0.16770063666476998,0.27627596178080077,0.11928684306735546,0.47533296385652063,0.06443516027763806,0.41009784889205037,0.5830673295262034,0.2831721006908029,0.07161085005720154,0.3833861003505095,0.5252242302368709,0.6064442025569159,0.5284392583529127,0.2993767238000376,0.529896920335473,0.4952606813552699,0.6108239212697129,0.5020532978181607,0.2660003299351945,0.2836261175029145,0.37761822695690755,0.11836890543292639,0.5129949019651097,0.5116723270870995,0.5370802122554991,0.19005586432503263,0.056941647120703986,0.2571518050386149,0.5677718050981035,0.3031023000095223],[0.24777366456041663,0.14858561229467224,0.16619343653809737,0.36715350237589534,0.530476986953781,0.24727669215460432,0.24291716244761505,0.5188037134579639,0.2084267962736979,0.5696473096479043,0.03505635258180444,0.5645616143976696,0.2154092672331183,0.2465743362150998,0.4658748765724267,0.1852216417587609,0.2317113144078352,0.6251266131714227,0.6702639573845394,0.6654227287055585,0.39944155802135684,0.5096203999783387,0.4162318666139642,0.17208503139550335,0.3514585654414711,0,0.38095265361951064,0.6455445999628391,0.2549867925193365,0.2836959043040809,0.07671281468057772,0.39260094327428824,0.5886831187627578,0.6473761668388414,0.3852760398851933,0.17782751378320635,0.02277793966811896,0.3472051942396165,0.25706074605763435,0.5575169404016388,0.22566074728760485,0.5139638189271806,0.5261735123015879,0.21695262794506479,0.619614638588253,0.5894614999255643,0.1906170018819571,0.6787517959855348,0.6496415700840645,0.40530609751151864,0.136751281297265,0.46209696074891815,0.40016785395980875,0.5589725646313751,0.3538769123916901,0.3509793546347214,0.38295545474488035,0.5581163664651507,0.5820723257725139,0.2654430817450031,0.3243371593278248,0.5615020226150234,0.45964352555636834,0.3975226020360231,0.42060173800862205,0.5485106694121966,0.2950941162851016,0.08273054713239737,0.3674084468538652,0.48275407935579134,0.5664297071237014,0.3849383991947038,0.2665610918651012,0.6250618771726754,0.3551327875230768,0.28675468459730047,0.27857512696591485,0.318536563331977,0.565336814478503,0.059231073953943975,0.5303843130659827,0.47625522542400694,0.22347971138774345,0.21177240611533854,0.20813983708211112,0.5276779021042526,0.4192676302539495,0.18537859197374512,0.2051424547100322,0.07531739014853449],[0.32262681610056265,0.2897567914707209,0.5169086558051669,0.32977909799749366,0.7665578298151079,0.4522470243429368,0.4938458505193119,0.7716394808030048,0.39260094327428813,0.8142467278752755,0.3550590315631957,0.7787412805635482,0.3041114799606836,0.4481891669702321,0.6881045833850296,0.4372089976126674,0.3437861484147454,0.685953009130646,0.7012228275857982,0.731199533728415,0.2959118555079071,0.3866981198205355,0.37839506653716315,0.3431332408445003,0.5964538720167032,0.38095265361951064,0,0.7344507135529551,0.23465212010392333,0.38602820542290067,0.4686184166547871,0.10719100661777144,0.8865079866960107,0.7697113572675418,0.030447041394211956,0.5260393721300143,0.41250379502437706,0.7055859621702812,0.40486718820022183,0.3874314675917725,0.2636944133434208,0.7314279606886801,0.8835774008456255,0.6035782593405268,0.9294092195764055,0.8494985168074907,0.5569531302954606,0.7708517635841194,0.9395456228770687,0.6689857927218635,0.5138755865525785,0.6607277026890807,0.016023218520791232,0.9347231000263185,0.02081575444197387,0.7411569535677538,0.7754782864713968,0.9143074978789296,0.948570869620385,0.5561959758815324,0.44742379978805974,0.8737663735570677,0.7273812975098888,0.7893917133933752,0.632063777213916,0.9208548047747871,0.6178859585682924,0.461672609699147,0.6558071815635164,0.8610881903837038,0.3778960836769886,0.7391557029957418,0.6176628873550897,0.7327892640600882,0.06735754823299728,0.09264735695284784,0.5458252439420668,0.08411211987187511,0.6560695986763664,0.42302956052144763,0.8977776489330519,0.7205959618973586,0.5651045871901968,0.547730574987064,0.5096327553934221,0.7981052060622784,0.6575899738680745,0.33020890261031477,0.395119885988147,0.46245573038162185],[0.43764856832180493,0.5364137158122009,0.791920866864256,0.39298710598984377,0.2710401811163066,0.3867441956765339,0.8986685112093812,0.3060117782257261,0.43026579998214337,0.29552317662564764,0.6069925821457332,0.22772105347202812,0.4718081965630639,0.9028165068191929,0.2525811377089595,0.8424515122399499,0.4338770732684273,0.04969334352539569,0.0927861692354392,0.03153373105220737,0.4334605474161314,0.38826413675319343,0.3471199356495423,0.4803152865804959,0.3293270312532904,0.6455445999628391,0.7344507135529551,0,0.8272002175701422,0.37489949114212184,0.6686076505469396,0.6291500882186241,0.4376112967982386,0.053874422415198,0.698774241196494,0.8025017425511173,0.633739017866943,0.548888245106123,0.3854293443006814,0.437832013842422,0.4983192085944231,0.2347475387372965,0.605516630972877,0.7538765021307382,0.48674053143296586,0.33810646372658165,0.7894146283681096,0.024916919447240442,0.4433434554570093,0.3352628504163206,0.5912038414400609,0.22053749024854907,0.7258462849456089,0.7082395533880377,0.7062900898156003,0.8049268048563338,0.7851483803061429,0.6162002216538245,0.6739813031992158,0.908876127064005,0.31797531361344294,0.4683400719509045,0.33585641633670293,0.8110623131416141,0.25651014053051663,0.68415078319618,0.9144566878806468,0.6016852188172398,0.38551692025794504,0.6820055160416532,0.4626628505572946,0.946719460911312,0.863187843764575,0.024572148464223252,0.6556030616431712,0.6573844724763904,0.9286837985353121,0.6438764384337146,0.07122719946630544,0.5892991523835521,0.6504752369419305,0.28891052427134833,0.8420532558501551,0.838183212292715,0.8549787166387157,0.34735681474097513,0.29166208102768804,0.47653037679983157,0.8565261587558503,0.6220814465691529],[0.3781208702444871,0.28271300802439053,0.3187549486837337,0.4542226112144077,0.7726863500847029,0.4577044779888158,0.2583661709673282,0.7665859689519828,0.39982991014875635,0.8158407613620038,0.2603812257949923,0.7994975394230003,0.3437136623619373,0.20681143338132607,0.7006443618563137,0.21110267767107246,0.3824426348080917,0.7916847859707187,0.8231205340874395,0.8362256146030043,0.4507590991962944,0.5631582416092615,0.5109654210377156,0.34394918801529034,0.5901232955987661,0.2549867925193365,0.23465212010392333,0.8272002175701422,0,0.44090434661200967,0.322183392581968,0.3225266152966591,0.8502222059676108,0.8452653172958488,0.265977133588887,0.32489258480852173,0.2886093166943081,0.6136051563522951,0.43653410402188175,0.5853178265280073,0.31947148655951935,0.7485943972266323,0.7918194687987843,0.4285390434079972,0.8836464660026252,0.8410700193257318,0.364012106673454,0.8632231817992424,0.9100686665104255,0.653462072837956,0.402653231789145,0.6868590634430349,0.2622451219740772,0.818292037648668,0.2278864568054025,0.5657652964177513,0.6110039308637889,0.8237976888607202,0.8452517880014564,0.3257602770737615,0.5003881196993583,0.8255197234005978,0.7108343704882517,0.6189041241001885,0.6488638968811321,0.809711148310921,0.3938893693337863,0.34927034152514164,0.6225015508741765,0.7414187097488802,0.582911360613034,0.5234915419309217,0.4077886703407122,0.8151383941842545,0.2686183444518005,0.2097047821217391,0.30966344562162684,0.24602007108984886,0.7443141980185559,0.3226807579421374,0.7936818699595176,0.7198620214544027,0.354974720870515,0.33668478513381334,0.2883732847860066,0.781269881943662,0.6585189959059737,0.3431332408445003,0.1591071743212779,0.3395682335710835],[0.05461203388882132,0.15084435528216322,0.4541092351029447,0.11537275950549919,0.37040731677077643,0.08811636966754793,0.5360087245525755,0.37852053788908296,0.07144055728357666,0.41848973597151756,0.2389652472994996,0.3810281070076521,0.08581816504712457,0.5302298213678195,0.2916992367811273,0.47488044401996726,0.04753021283574533,0.3428390401477016,0.38134288647803155,0.3863107102003657,0.1739680463074306,0.2511869682146222,0.14148372007881627,0.10137016814196662,0.21268714802287686,0.2836959043040809,0.38602820542290067,0.37489949114212184,0.44090434661200967,0,0.3355031813630225,0.3097275791178837,0.5047742635674836,0.393876664151771,0.359722141886626,0.46569411178082687,0.2834908586235956,0.39537630286633296,0.029985891145596476,0.31266798360921666,0.1177234704002793,0.33395621262282305,0.5503358473087191,0.45937013285562955,0.5520225890043132,0.45594474760937914,0.4664625637214994,0.4107638994333117,0.5525593636476164,0.28538321509364883,0.2953123930558016,0.2630199667827052,0.386306664269858,0.6270313565687969,0.354253775460972,0.560010027100678,0.5662870792935545,0.5771311573212974,0.6233013670701827,0.5605032884928045,0.05109916682915093,0.5005088573612296,0.34098102800937397,0.5890349089825175,0.23569579537435648,0.6075872821525846,0.583941730906948,0.27645484759562566,0.2871817087631348,0.5655265462410672,0.3299186552609048,0.6523320044087252,0.5451524423674624,0.3626896773943911,0.31377417645106415,0.2917501858445701,0.5738160791577179,0.29023077433832395,0.2919878351167615,0.2476942129634009,0.5778220926199958,0.32723823762113596,0.5102378124348608,0.50136075813849,0.5033880669443586,0.40906732878314206,0.2656986261286009,0.09283239902755182,0.47977758677994525,0.29394982055751423],[0.3124693422897573,0.22533487134698904,0.11191922081380491,0.434676492568565,0.5167965400474787,0.275913377217345,0.2295582828404416,0.499791559721259,0.25360162375406015,0.551061971840046,0.11405806529032562,0.5564499844239037,0.28428407529025723,0.25312045411165557,0.4609863147713354,0.18765987037599052,0.2914613612648981,0.655724189978266,0.7055033423199012,0.6931034927373739,0.47315648541424077,0.5791143281643251,0.4793868780151252,0.2324036622349581,0.3484986400806232,0.07671281468057772,0.4686184166547871,0.6686076505469396,0.322183392581968,0.3355031813630225,0,0.4801234587436392,0.5495514039258853,0.6619622567016061,0.47362653935496085,0.12284813032661994,0.05064613972749377,0.2885878669148141,0.3019338264116791,0.6308760303694545,0.30181057584273463,0.5075504404807678,0.4621105554580818,0.13008400668539505,0.5747460143062303,0.5645616143976696,0.11930651300723177,0.699633178631416,0.6116841868342416,0.3896748271731411,0.08564625916895445,0.4653566809293325,0.4882521375786247,0.4844239167651221,0.4419534146346373,0.2626022921013425,0.29522426150887376,0.4940190998364322,0.5123069896127613,0.2289434165493294,0.36450211067339827,0.5173739257942666,0.4384470132535156,0.30929442934237783,0.4229821446089601,0.47602812518732424,0.23901149803098107,0.05528865499464833,0.3445246636137528,0.4075582820234959,0.6416063255841546,0.30934258595600184,0.19802089748489357,0.6444023669148559,0.4434248405956118,0.3751484981092644,0.2510252020651037,0.40681095269230977,0.5919613667664341,0.07612797024731978,0.4609209013726346,0.46283594721730603,0.1651110802217569,0.15886564317666516,0.17709878532943057,0.5016644865612072,0.4122425442197442,0.24892793376291603,0.22801547278621176,0.034863032625398985],[0.254517805244692,0.2615152356145423,0.5527351319636217,0.2278219227535001,0.6903688418326791,0.3922343447220831,0.5572611440152438,0.6997956982317538,0.33823441679330496,0.7386219359000741,0.35602371179839387,0.6965727790863987,0.24777366456041666,0.5195098888630215,0.6117461793265497,0.495595996826844,0.28082539686257674,0.5778483147098975,0.5890349089825175,0.6226665701266585,0.18467132807352532,0.26836086436764883,0.27038215760880396,0.2993767238000376,0.5318059464153796,0.39260094327428824,0.10719100661777144,0.6291500882186241,0.3225266152966591,0.3097275791178837,0.4801234587436392,0,0.8247115172380229,0.6688854801071294,0.0653937476580377,0.5631627235242417,0.4189087767482804,0.6749927407501659,0.33739404175112525,0.26917387931942377,0.2080284663537866,0.651889533060195,0.8470358119142735,0.6212327689393696,0.8707277841166214,0.777028176902706,0.5874459261226356,0.6651468084905295,0.8737372759499163,0.6050024513308211,0.5038955225042387,0.5799161870654693,0.08969157752635114,0.909162603283757,0.09190388329219913,0.7534872805645301,0.780302677532461,0.8764001113364822,0.9161086907749835,0.6128383026711309,0.3664728101482861,0.817451928164971,0.6616715268953085,0.7973110133776813,0.5560553151422136,0.8929375217420638,0.6671133766037733,0.4569766411589936,0.6001580423814046,0.8390342698845568,0.2607975773801409,0.778441347950457,0.6563415546389965,0.6305250950708028,0.04227142060477501,0.10896578158919892,0.6082421958794947,0.07023859697496034,0.5534627326250479,0.416758363950255,0.8669034063153825,0.6485361814880974,0.6060689619330324,0.5900890457287694,0.560827393160633,0.7303628132811806,0.5871018078463476,0.28264736490219106,0.4633650278265263,0.46282780290794306],[0.5590019101200363,0.5913293606436937,0.6423926278118626,0.6146364513425865,0.1627490904133703,0.4233287541850783,0.7798340935997116,0.1338946082066027,0.4822379437480657,0.13041074850622414,0.5781716246386888,0.1986526646302251,0.5717177534178066,0.8124229863551877,0.22387378818238637,0.7475109144059612,0.5341616008589165,0.47965962023491726,0.5377910321913508,0.4808098965753302,0.6756396545232589,0.7046964003222536,0.6066879868566847,0.5329519346020016,0.28122148485407,0.5886831187627578,0.8865079866960107,0.4376112967982386,0.8502222059676108,0.5047742635674836,0.5495514039258853,0.8247115172380229,0,0.37992767581219544,0.8669840447615111,0.6484405671857759,0.5581887073242905,0.2658193470128035,0.47572692224150026,0.7697459769534176,0.6125969200943451,0.20751778290994638,0.1922595729353496,0.5459938949943219,0.04040063520956303,0.0896407364858482,0.614685812076825,0.4403952846076297,0.05064613972749377,0.20802846635378652,0.4529268199045532,0.2668202358540914,0.8921211873571726,0.29116800771372736,0.8540086726109878,0.5180649853231932,0.4735442464152155,0.1888261134382516,0.24370525131357507,0.7547825165580128,0.45447967920847376,0.03519395018132711,0.15258665458481319,0.49658034031640086,0.27120302478961394,0.26822283117998363,0.724720149873181,0.49916908708095803,0.22074680567352295,0.29786977758288574,0.7933122948482353,0.6939341901205955,0.662558625131994,0.4017506202142897,0.8219345759885883,0.7838536002921291,0.7854793216690691,0.7931122375501396,0.42525230430861666,0.5182011442053024,0.23884187027172346,0.17794303525973368,0.6695400845870837,0.675643402972944,0.718291344938834,0.09210266367967358,0.23102229925278156,0.5448076345908037,0.7889863718095353,0.5143753743386122],[0.4590746904060605,0.5514761530106801,0.7840414153055606,0.42990932031041323,0.2201252389065278,0.38952073687147865,0.8972718370809036,0.2555803043216234,0.43918190521402295,0.2386000807538435,0.6117296485980229,0.17293127598525296,0.4913321518574152,0.9056347295238233,0.2168060903489988,0.8435544220355334,0.45141882593847366,0.11265697959802601,0.15794924486722747,0.0947286867853807,0.4755233727836341,0.4412429293914358,0.38881373108918055,0.4923631600055516,0.3094388775181894,0.6473761668388414,0.7697113572675418,0.053874422415198,0.8452653172958488,0.393876664151771,0.6619622567016061,0.6688854801071294,0.37992767581219544,0,0.735773336413686,0.7941871614018264,0.6323758728502569,0.5146985135688978,0.39787188594595513,0.494131170714947,0.5214488603921352,0.189595588210664,0.5560212790822969,0.7366965336602084,0.4277775607774285,0.27919136862425187,0.7778199295901586,0.048848010764080074,0.3816999869819836,0.3021062958791749,0.5789464101828741,0.1930979355284561,0.7630224120965693,0.6593795477905148,0.7404242367306048,0.7773841557840983,0.7536472009475024,0.5645727918325263,0.6223451237595228,0.9024963370192818,0.3332361522461514,0.4132805212338027,0.2931394961164611,0.7795622528911457,0.23357774388260139,0.6352496463204104,0.9029471489757228,0.5951178923664131,0.3544086346245982,0.6381007979751412,0.5191654120367414,0.9263558660962192,0.8492486729829761,0.02945700609559568,0.6915147244196992,0.6873549577819763,0.9242041952668828,0.6769784251123904,0.10459439619097467,0.5869361304188911,0.6018862806720869,0.24650449447418982,0.8318338074093755,0.8293438843085442,0.8502207113685005,0.29493030673299253,0.26130296759973654,0.49098374135485606,0.8618892853851317,0.615524350209779],[0.29846845058695687,0.27860619199944575,0.5309329968649531,0.2945056746379406,0.7416564355367719,0.4319698665093004,0.5176879343731816,0.7483096875624664,0.37381414685060704,0.7896280679617356,0.3552451490491286,0.7516989459341492,0.2836261175029145,0.47468978339553075,0.6629883713647572,0.4589652202123248,0.32159253191028925,0.6491505145349518,0.6627878571977264,0.6942577101072879,0.2573481957229305,0.34533743081352675,0.3412110767312202,0.3274548180817382,0.575237865520834,0.3852760398851933,0.030447041394211956,0.698774241196494,0.265977133588887,0.359722141886626,0.47362653935496085,0.0653937476580377,0.8669840447615111,0.735773336413686,0,0.5405738487817776,0.41524331125051706,0.696761912738197,0.3816999869819835,0.34530495565404973,0.24271975877544708,0.7052572224484055,0.8730735908670539,0.611498172356323,0.9110701718753703,0.82607347127979,0.5692549537973874,0.7350443939241604,0.9186544112948636,0.6482278244614929,0.511519696554002,0.6339580311754329,0.015601591182916036,0.9282203179927898,0.026870857525563965,0.7476500393564594,0.7794043145037243,0.9033738068354464,0.9396363533436018,0.5778483147098975,0.419900875578718,0.8561874277070335,0.7061550621446286,0.7944492764233169,0.6069379222399706,0.9134891335732552,0.6371028309726003,0.4608473004752162,0.6379620077152056,0.8556885511659607,0.3358073001638406,0.7551857792836075,0.6331254847440088,0.6982731680810464,0.03427819447177293,0.08720870790882448,0.5695032549410691,0.06355000679630282,0.6213467378536699,0.421334191497719,0.8893175285282232,0.6970873226624372,0.5811864761079311,0.5642396111850851,0.5291471438036535,0.7762961191463535,0.6344925307640386,0.3130609349573096,0.4202380279724205,0.4634409500030816],[0.43588985386988266,0.3379582005673994,0,0.5563207264136405,0.6376902895099216,0.41035127032614505,0.1231828509677709,0.6174335941758837,0.3852857752590313,0.6682378239675101,0.22441456978306662,0.6801362174946475,0.40448663206267743,0.16903140161673316,0.5873577646516165,0.11609057965395582,0.41774943122022823,0.790240336158464,0.8399741021577991,0.8274643017591238,0.5887346131329376,0.6991127755844762,0.6043650044400729,0.3578409511941527,0.47723371618625277,0.17782751378320635,0.5260393721300143,0.8025017425511173,0.32489258480852173,0.46569411178082687,0.12284813032661994,0.5631627235242417,0.6484405671857759,0.7941871614018264,0.5405738487817776,0,0.17074123502714184,0.37330588076163007,0.4340902474339588,0.7467214914235683,0.41484483143890105,0.6326478328845601,0.5276372980952392,0.10862362923082956,0.6663747414848096,0.6767221070714017,0.03153373105220737,0.8331419676453521,0.7106489215318164,0.511519696554002,0.20597262530058455,0.5950520777486588,0.5496592725214233,0.5250322522274986,0.5046370588599444,0.23453181381613789,0.2855046091828767,0.5582429569428229,0.5638905710849642,0.09874168063880415,0.4979875803805532,0.6112748816654285,0.5556853471662404,0.28895658991127876,0.5527511081873023,0.5224627367119606,0.10666971140025355,0.18935864752927273,0.4629526669614131,0.45010958831528286,0.755128663291246,0.20367597471620777,0.08149450257889958,0.7777285512745791,0.5189323995941542,0.4473059377143509,0.12636421125549252,0.4836313158785288,0.7263138006698797,0.20813983708211112,0.5152488623071617,0.5846636589742764,0.03396886082665409,0.02438513761738141,0.059231073953943975,0.6139944074312635,0.5382526895837579,0.3726763061228476,0.1738708782212069,0.1690741664019843],[0.2546871226751713,0.1635375074630506,0.1591071743212779,0.3762359204788966,0.506049769937143,0.2358363543909133,0.25347048226441293,0.49288425678994535,0.2041420350009041,0.5439667039154946,0.05181323093247694,0.5418413338644472,0.22485066180713464,0.2641197756555986,0.4438322551792424,0.20031197014142868,0.23554994606296345,0.6163125397645748,0.6634922581869147,0.6554891519939139,0.41266168259935504,0.5201715308910488,0.4227894642521947,0.17572907822878153,0.3294545010876235,0.02277793966811896,0.41250379502437706,0.633739017866943,0.2886093166943081,0.2834908586235956,0.05064613972749377,0.4189087767482804,0.5581887073242905,0.6323758728502569,0.41524331125051706,0.17074123502714184,0,0.313326602165152,0.2531350478549944,0.5706436341167607,0.24036441044074125,0.4916163375534801,0.4920103476659081,0.19231641292140833,0.588064841460056,0.5621870828805242,0.17627130520636822,0.6661643016432359,0.6194717832705706,0.3799013590521453,0.1025490434503741,0.4426401060400402,0.43100772586780867,0.524554408809218,0.38478246804820404,0.32295418627423883,0.35248938635455435,0.523965523656981,0.5476384566841987,0.26748550153033923,0.31865747306242215,0.5300110808794279,0.43297628024394286,0.367982294247929,0.40068049830341695,0.514049586206017,0.28909367377854345,0.049076349558905066,0.33993845091153824,0.4483796098056865,0.5808213295280552,0.3692153369231766,0.25434353774674917,0.611783371863209,0.38352954460739236,0.31642324596599175,0.28428407529025723,0.3468927796808316,0.5547673296702184,0.0343062125452876,0.4959513924160774,0.4517386080839337,0.21572104326188873,0.20624470539548473,0.21144933990646664,0.49999552554205934,0.39638773220751095,0.1911575359214908,0.22739125057118045,0.04089295320527376],[0.4230740082428199,0.40653690536069753,0.36805354015612596,0.5224120886061583,0.30180235741522005,0.2955766360247457,0.5065993604132328,0.27158073444136294,0.33314277017811367,0.3164860584189975,0.35165716371910394,0.3520292432096919,0.4186903278215499,0.5434192997997126,0.28645670000155127,0.4798588361527687,0.3941560862769057,0.5638749040670813,0.6240110196785745,0.5862778089075222,0.5804363779299608,0.6512991119031151,0.5403358713365228,0.36413552449690234,0.22427266633889834,0.3472051942396165,0.7055859621702812,0.548888245106123,0.6136051563522951,0.39537630286633296,0.2885878669148141,0.6749927407501659,0.2658193470128035,0.5146985135688978,0.696761912738197,0.37330588076163007,0.313326602165152,0,0.3546900290439195,0.7155951663980766,0.45637704388269607,0.3171096050455002,0.16850313475150952,0.26849423180809073,0.28138416575287406,0.3114384256587235,0.338009777491616,0.5687896576847835,0.3274548180817382,0.20203676027477757,0.19934359269991278,0.3169058080570412,0.7181095560514632,0.2232221101864551,0.6743489724724651,0.25879991254474405,0.22813904797332107,0.20019648491993278,0.23132994737563659,0.4780051047065603,0.37510520406505343,0.22665732189716759,0.2163094180981377,0.2539364689597049,0.28465380626033543,0.20628016906466082,0.4474181879944773,0.25278944660105956,0.15232766775391596,0.15846485303419924,0.7346263644179414,0.42635944669902737,0.3854025811279428,0.5152488623071617,0.6561776228122397,0.6017917950572959,0.5092248719617288,0.6219162749233984,0.4957584942666305,0.2831721006908029,0.18088214186989382,0.2597697380361695,0.39239696425316284,0.39910615262953125,0.44385487863899825,0.25288684473998096,0.2456649151603802,0.38144120337334775,0.5262693062314027,0.2627713157179764],[0.07178079539015797,0.14218019509746435,0.4226174619173978,0.15650785575775877,0.3503892334040012,0.04802846938255109,0.5113497811742173,0.35519599511576605,0.03731673969730242,0.3978593043123565,0.21440869484072902,0.3659307843356879,0.09124268129191082,0.5094251455404774,0.27229382338273633,0.4517469472736128,0.04983484799945361,0.35901737971724956,0.40195621527744824,0.4009342401276204,0.21408369520722995,0.292716597817688,0.18263354913140914,0.08328830083757027,0.18285881587143293,0.25706074605763435,0.40486718820022183,0.3854293443006814,0.43653410402188175,0.029985891145596476,0.3019338264116791,0.33739404175112525,0.47572692224150026,0.39787188594595513,0.3816999869819835,0.4340902474339588,0.2531350478549944,0.3546900290439195,0,0.3543382522178178,0.13002038606464328,0.3170312365410129,0.51218897108078,0.4217831739195227,0.5216807734661345,0.4330371140396926,0.43245450591072676,0.4203968161114251,0.5257829754921077,0.25608110902982884,0.2561580727967013,0.24836382415567707,0.4076228035122389,0.5871297748372648,0.3725858037827768,0.5196481019556233,0.5250682533345074,0.5395161638318432,0.5846809399476446,0.5319599902147535,0.05656519283841312,0.4688034433728242,0.31331074753195515,0.5479585025817858,0.2164732136229573,0.5679829633989819,0.5519151727285945,0.2406249324426646,0.2528478897877176,0.5248113925904472,0.37154853284870576,0.6158672522082286,0.5109555619327592,0.3696783890436859,0.3360926330244493,0.3063430870659569,0.5469793682568193,0.3095712312901969,0.30311866877615345,0.21454539711292647,0.5385992637047254,0.3040829241264157,0.47801036598172786,0.4700057218228844,0.4753435440832108,0.383020734281107,0.24122158653234127,0.08171543935245955,0.4610081172259709,0.25889514716617446],[0.3099158972991418,0.39725493067981554,0.7351526379226656,0.18943552374075862,0.6039864042355326,0.4106289431572753,0.7797234152394957,0.6261837109905419,0.3894404580626465,0.6492284842204229,0.5113990376895013,0.5897228784238712,0.3350799389015221,0.7543470907023182,0.53438811496045,0.7152762691302872,0.3352173636697628,0.3774626729483475,0.36519319856671223,0.4160790611745407,0.14643313901814678,0.0542027260871165,0.1636771361558368,0.3898545244556049,0.503680602332865,0.5575169404016388,0.3874314675917725,0.437832013842422,0.5853178265280073,0.31266798360921666,0.6308760303694545,0.26917387931942377,0.7697459769534176,0.494131170714947,0.34530495565404973,0.7467214914235683,0.5706436341167607,0.7155951663980766,0.3543382522178178,0,0.32020588497829816,0.5588438781322421,0.8577534618567799,0.7669037050697597,0.8212110547168362,0.6941386318439108,0.7582436735124326,0.4690024686555144,0.8035544103292184,0.5669353067151028,0.6117234494618159,0.4922506959374683,0.36680309876473977,0.9423258990919676,0.3720490556007659,0.8786817837557513,0.8887626162452283,0.8816111254094332,0.9322043405888761,0.8225972526108115,0.330050616434151,0.7785310136492359,0.6110432363810488,0.910839796242047,0.48834231507389075,0.9215231598535613,0.8625526200199422,0.582575455283803,0.5864905103575836,0.8851114067139992,0.013438653045245556,0.9515163597345236,0.8354485320584095,0.45299613088173607,0.3186145746758937,0.36466986738574836,0.8265807521584201,0.33099171841123204,0.3831382102474066,0.5468986571737127,0.8901192592703133,0.580125188968084,0.7923435549489725,0.7797185320141632,0.7658705879673208,0.6661790298076703,0.5320358111305282,0.3720221984824197,0.6977068246134417,0.5966889549178626],[0.05142659860741264,0.06551064825378275,0.40326836974933744,0.13704605694496128,0.4920921812276717,0.17759625931678252,0.4565834139813197,0.49634964745068394,0.11991482290495686,0.5395161638318432,0.1797549858009583,0.5068453681333933,0.02923724321237574,0.43953605537348583,0.413974126108611,0.3925053409253848,0.06858660474614704,0.46078732089645047,0.4922711458166204,0.5055301068536634,0.16221655495370732,0.2742828146233537,0.19176629453448776,0.0808146010505906,0.3213141170619606,0.22566074728760485,0.2636944133434208,0.4983192085944231,0.31947148655951935,0.1177234704002793,0.30181057584273463,0.2080284663537866,0.6125969200943451,0.5214488603921352,0.24271975877544708,0.41484483143890105,0.24036441044074125,0.45637704388269607,0.13002038606464328,0.32020588497829816,0,0.45839830464168685,0.6273459099867743,0.4412457735524813,0.6567406086785373,0.5742097779570137,0.42700888352347793,0.5346646415082044,0.664662724935883,0.3941052965653717,0.2998112579785718,0.3889198615008977,0.26790048872308225,0.6910639280125311,0.23129813977118505,0.5625730515629237,0.581423266444087,0.6566866442886591,0.6966800822598878,0.49390445619715967,0.18046023319761373,0.6021024929993701,0.45228589663500174,0.6009681040166174,0.3580953487888033,0.6743039048465597,0.5310255770589553,0.2608306689441676,0.3839335167802369,0.6222801037351632,0.32923919097542154,0.6208968482955763,0.5037780772358316,0.48879295882406276,0.19792258802817167,0.16470987453023533,0.5006924246850367,0.1690599125978173,0.4157499301019264,0.22220539179045745,0.6477532977510212,0.4453793733435394,0.4604763955896997,0.4480182614133341,0.43663755787379527,0.5228291894424472,0.3822857158560184,0.06325836215047273,0.38497412478241316,0.27200335385568286],[0.3973777663416217,0.46083366942131504,0.6236218226856007,0.42351231573378595,0.033940635592619416,0.28108071496214054,0.7486621695286249,0.06346434645011902,0.3416743704725582,0.07918476413825959,0.48770299201384737,0.039326064567740626,0.41993370729388785,0.7666852754216203,0.036601727492095976,0.7018910940170435,0.3785040308058286,0.26726392259281,0.3274548180817383,0.27650513922467,0.48220142889360407,0.4951285264697564,0.40516396622686995,0.3980731395441611,0.15082057565227525,0.5139638189271806,0.7314279606886801,0.2347475387372965,0.7485943972266323,0.33395621262282305,0.5075504404807678,0.651889533060195,0.20751778290994638,0.189595588210664,0.7052572224484055,0.6326478328845601,0.4916163375534801,0.3171096050455002,0.3170312365410129,0.5588438781322421,0.45839830464168685,0,0.3592674978561488,0.5593065625809915,0.2594848552995016,0.12361198930395648,0.6100080528963243,0.24745695477631577,0.23356723898079787,0.11203380946834257,0.41524331125051706,0.0604557260953643,0.7319166539062519,0.4618277051351989,0.6994715276021889,0.584523232497694,0.5569259446038016,0.37101032984995014,0.42865022672736613,0.7429907541966282,0.2740980616611845,0.22943009238705553,0.09194118365978352,0.5827315123350914,0.08943711671243401,0.437748182797334,0.7333151061718958,0.4435154086822698,0.1645345166950991,0.43717742948652305,0.5830954862209755,0.7417316712352304,0.6758851348101158,0.1987383894632469,0.6592950781774695,0.6347795420531184,0.7683434764012068,0.6356577225317385,0.2080988123269491,0.4458976706323313,0.40405305483818454,0.045853124211923335,0.6657437012462433,0.666051691873546,0.6950870508949624,0.10666971140025357,0.08378884255829125,0.40404375894893146,0.7301944009264675,0.46306393115504324],[0.5876974375555293,0.5829828514428117,0.5245784312018683,0.6750246319356531,0.3242489729694614,0.45264114955523,0.6624669104808796,0.28881944350930977,0.49908082109211266,0.312234788854262,0.5318343885566932,0.37227055514629576,0.5881099457216998,0.7053219044664385,0.35089054238764583,0.6442924036739439,0.5592433887659112,0.6364492539319917,0.6971963651874322,0.6474528806303443,0.7353457993857827,0.7920438900252946,0.6837040123677417,0.5364225294199008,0.3429698261427259,0.5261735123015879,0.8835774008456255,0.605516630972877,0.7918194687987843,0.5503358473087191,0.4621105554580818,0.8470358119142735,0.1922595729353496,0.5560212790822969,0.8730735908670539,0.5276372980952392,0.4920103476659081,0.16850313475150952,0.51218897108078,0.8577534618567799,0.6273459099867743,0.3592674978561488,0,0.4112416184141675,0.17348865283454334,0.28324199492309254,0.4877158896758133,0.6157794912483843,0.23699941005665354,0.2873023726345504,0.37777702649896766,0.3925053409253848,0.895149176314573,0.09184168614810313,0.8520302674958807,0.34569446280037575,0.29341406567226364,0.020296340964065605,0.06298283249340478,0.6233662825320979,0.5176879343731816,0.14627826859370302,0.2625318348457395,0.3130609349573096,0.3757474568584946,0.0677639416526077,0.5795306461128807,0.43187694102060725,0.2597697380361695,0.09869500813819888,0.8788322408113844,0.5234458057596529,0.517666032842309,0.569376900653592,0.8314366472463428,0.7794499082031887,0.6565420753452487,0.7979381560868235,0.5732944054947468,0.46322670981782765,0.035522548135897954,0.3079108542629373,0.5373735663135909,0.5476430629596621,0.5982792025232807,0.2501263212597459,0.3296281610901244,0.5527511081873023,0.6945254487812323,0.44057405555873863],[0.44581883718313686,0.3656646002285649,0.10861292128900858,0.567985185708839,0.5573992430711867,0.3837771894082217,0.24146596089072458,0.5330938313074686,0.3762658064351048,0.5824258621440813,0.2557971137490158,0.6034861276636709,0.4205212711767215,0.2893334203290744,0.517395839417027,0.23461028110383988,0.42227918967940953,0.7502801339038545,0.8045003743179373,0.7834669017600565,0.610167583408578,0.7126240029609494,0.6089815205229399,0.36552119252175486,0.415605243151996,0.21695262794506479,0.6035782593405268,0.7538765021307382,0.4285390434079972,0.45937013285562955,0.13008400668539505,0.6212327689393696,0.5459938949943219,0.7366965336602084,0.611498172356323,0.10862362923082956,0.19231641292140833,0.26849423180809073,0.4217831739195227,0.7669037050697597,0.4412457735524813,0.5593065625809915,0.4112416184141675,0,0.5591644116656725,0.5851128016550307,0.06617528470290032,0.781515558925704,0.6075186320586016,0.4356451410997079,0.15685980501695565,0.5325544270082394,0.6246085407683089,0.4048084258136313,0.578424905891599,0.12724787205868793,0.17099527200198167,0.4412429293914358,0.4444765840926248,0.20102173414203614,0.4775603225705301,0.5060746508858466,0.4721697494194301,0.17904713071931083,0.4914576229897644,0.402625249272191,0.16780832216973132,0.1730777501667756,0.38381953417270054,0.3301787585127892,0.7788227643275012,0.18445471097163485,0.10674587653209212,0.7256309796594539,0.5831799483088663,0.5137848878404588,0.23381398533560532,0.546667989791877,0.6833482423757387,0.20850286553314973,0.39646980074710336,0.5068453681333933,0.11475278613603808,0.12478752166333265,0.17726930059820978,0.5235878158335142,0.4688034433728242,0.3832034595721138,0.2909722807155458,0.15857837992708354],[0.6046158818884064,0.6319697187359175,0.6610743720965082,0.6639175970591941,0.21454539711292647,0.46782655526974926,0.7994959513638613,0.18597907998255245,0.5256559299805191,0.18019187317271865,0.6121593051788057,0.24874497949022106,0.6158179844085516,0.834893308114085,0.27562656704569743,0.7706010909365897,0.5791426732446291,0.5301347276584272,0.5877812512500958,0.5299593548641655,0.7250576902937221,0.7560520768743945,0.657249201754658,0.5749107425576128,0.3277547625138684,0.619614638588253,0.9294092195764055,0.48674053143296586,0.8836464660026252,0.5520225890043132,0.5747460143062303,0.8707277841166214,0.04040063520956303,0.4277775607774285,0.9110701718753703,0.6663747414848096,0.588064841460056,0.28138416575287406,0.5216807734661345,0.8212110547168362,0.6567406086785373,0.2594848552995016,0.17348865283454334,0.5591644116656725,0,0.13702873337518542,0.630677524809023,0.4880466009322125,0.05301900976983892,0.2549867925193365,0.4794917967918539,0.318723759613649,0.9358698558777054,0.26445586176189173,0.8969387260194259,0.5185243814137314,0.47045212951603826,0.16239424778529718,0.21241714134107853,0.7704298135183634,0.5032379843294847,0.046454472665186604,0.20165065310255048,0.4921126375411607,0.32200971863495137,0.2430233933635035,0.736047314209243,0.5281028665457147,0.26193927763541025,0.28341229275988983,0.8446878774100878,0.6961161041157804,0.6736275348090272,0.451104389987014,0.8663284596205975,0.8261718770325486,0.8019901363294695,0.836773514004337,0.4766510777373778,0.5498772415218873,0.21722291243956307,0.22945680435115984,0.684472373176538,0.6917986144580744,0.7369065053134822,0.14401947439469553,0.2808033762469153,0.5875233254998923,0.8144011236101507,0.5421391440834006],[0.5159597953780694,0.5651090539813239,0.669288533617621,0.5544033468337622,0.07884389310881101,0.3878605129592798,0.8029062891703642,0.06617528470290032,0.44905113178716866,0.03422210702521638,0.5713599335178932,0.10173420408184321,0.5341616008589165,0.8292872094695927,0.1548762174306221,0.7637935800913659,0.4940318364143049,0.38268116269421026,0.43963882110997304,0.38132076178700847,0.6140746989456479,0.6303946988220478,0.5390485483799572,0.5036056090911524,0.24415377854029596,0.5894614999255643,0.8494985168074907,0.33810646372658165,0.8410700193257318,0.45594474760937914,0.5645616143976696,0.777028176902706,0.0896407364858482,0.27919136862425187,0.82607347127979,0.6767221070714017,0.5621870828805242,0.3114384256587235,0.4330371140396926,0.6941386318439108,0.5742097779570137,0.12361198930395648,0.28324199492309254,0.5851128016550307,0.13702873337518542,0,0.6472842939884261,0.3395544803645978,0.09939303654719243,0.1761204625660313,0.46749062606532027,0.1926697287168932,0.8521987870636052,0.38545448382003455,0.8171551242035902,0.5785493232339329,0.5399086544563494,0.2848493595546378,0.3413862513404945,0.7860786263545801,0.39951675157347205,0.12817200971059886,0.11868548428267833,0.5644118158475044,0.20963494660147505,0.3618112050184939,0.764391372180976,0.5068751793204667,0.21056428261239601,0.38169671230392477,0.7183919271000004,0.7493412533241313,0.703488783288936,0.30257804931247567,0.7802912916270449,0.7496526501383768,0.8147643856029856,0.7542932757331184,0.3319452384449832,0.5187138574602136,0.33044995977927166,0.11730470247170732,0.7032924204304934,0.706980083993928,0.744222177711166,0.051263095613886055,0.1802388632644978,0.5126486017687041,0.7996864962677677,0.5244198635181045],[0.44227702676969866,0.3498230935748864,0.03422210702521638,0.564103152748145,0.6124730979466002,0.40338011506892235,0.16374323727363876,0.5906432261014593,0.3843598462278011,0.6410066023680678,0.2356332990585209,0.6563878339900702,0.412807372853176,0.21177240611533854,0.5658210649444891,0.1591825827867747,0.42203273778174344,0.780291291627045,0.8317742453068686,0.8161275325895232,0.6001580423814046,0.7081263674446654,0.6098505540562017,0.3626380596178852,0.45822288797657684,0.1906170018819571,0.5569531302954606,0.7894146283681096,0.364012106673454,0.4664625637214994,0.11930651300723177,0.5874459261226356,0.614685812076825,0.7778199295901586,0.5692549537973874,0.03153373105220737,0.17627130520636822,0.338009777491616,0.43245450591072676,0.7582436735124326,0.42700888352347793,0.6100080528963243,0.4877158896758133,0.06617528470290032,0.630677524809023,0.6472842939884261,0,0.8190184889974818,0.6766884231548923,0.4875172287329134,0.18720052638842238,0.5762794922672366,0.5797528529393704,0.48261336854744785,0.534192280145797,0.1922658892716255,0.24249179480263372,0.5180260763571061,0.5222432268880528,0.1284112869780523,0.493914647795517,0.5763517893692427,0.5290280360446685,0.24651946215188042,0.5342465546606912,0.4804769400198392,0.11349333836098488,0.1814165704080568,0.4375331599158816,0.4080373476817675,0.7679156247028764,0.1826401783510269,0.06703092287259835,0.7633100278110597,0.5452172146308439,0.4740722714947299,0.15963433655036416,0.5093485067207437,0.7151008159900333,0.20711191055869269,0.47401922959433646,0.5602172937530284,0.0444708183776474,0.049435702355162765,0.09948577585569313,0.5848947505667361,0.5167136565892108,0.3786789703728569,0.21672150666331907,0.16220914714531579],[0.47382358750435194,0.5719501083525045,0.8226841029989793,0.4293904892465175,0.2798604395527574,0.419794155251236,0.9312679757906767,0.31527578405970186,0.46468989084702983,0.2991333265352289,0.6408037752256811,0.23328475101031163,0.507826374352597,0.936404330118232,0.27079858977696547,0.8756240950220083,0.4696398670810187,0.08007703572519115,0.10828318552360966,0.044859447715341505,0.4692650291345439,0.4212099701426307,0.38308029243860625,0.5153521414812018,0.35514771252018706,0.6787517959855348,0.7708517635841194,0.024916919447240442,0.8632231817992424,0.4107638994333117,0.699633178631416,0.6651468084905295,0.4403952846076297,0.048848010764080074,0.7350443939241604,0.8331419676453521,0.6661643016432359,0.5687896576847835,0.4203968161114251,0.4690024686555144,0.5346646415082044,0.24745695477631577,0.6157794912483843,0.781515558925704,0.4880466009322125,0.3395544803645978,0.8190184889974818,0,0.4410900294472089,0.35522145065334176,0.6203982371992112,0.24251840113342354,0.7620927495978714,0.7190343554748941,0.7427658281382435,0.8283327368719688,0.8066476210377677,0.6247467009093433,0.6825364236099951,0.9401470585932946,0.3532500015722888,0.4737890932673662,0.3504861716806597,0.832579123516368,0.2807119729700041,0.6949052172637656,0.9441662761346336,0.6326623275313745,0.40665162679108846,0.6963167316894713,0.49365788430183755,0.9732689509215307,0.8920574024511972,0.04420062746133174,0.6919748433706201,0.6939857624802089,0.9604944116775783,0.6804103497817181,0.10729120206197869,0.6214205014354116,0.6614538755695141,0.30357767072223646,0.8721328815888335,0.86868781779742,0.8866746990804163,0.35508800888771697,0.31279604274762585,0.5119288676443795,0.8906265822410618,0.6530847893862948],[0.6092492045854087,0.6470340221091561,0.7046514436514478,0.6575283782004396,0.1880859189563455,0.4756211928751583,0.8421494427294437,0.16712521870258984,0.5355498821675782,0.14529660987183715,0.6380234756308036,0.21188191179702182,0.6239461700620489,0.8747144324178033,0.25959884429370905,0.8097754465442323,0.5853782414784557,0.4908478983220425,0.5464164537527307,0.486344938777885,0.717968329548818,0.739368417539503,0.6454853057047857,0.5876093130840303,0.3317352410596945,0.6496415700840645,0.9395456228770687,0.4433434554570093,0.9100686665104255,0.5525593636476164,0.6116841868342416,0.8737372759499163,0.05064613972749377,0.3816999869819836,0.9186544112948636,0.7106489215318164,0.6194717832705706,0.3274548180817382,0.5257829754921077,0.8035544103292184,0.664662724935883,0.23356723898079787,0.23699941005665354,0.6075186320586016,0.05301900976983892,0.09939303654719243,0.6766884231548923,0.4410900294472089,0,0.25889514716617446,0.5149431840127272,0.300129531