"trial_id","rt","stimulus","response","trial_type","trial_index","plugin_version","time_elapsed","participant_number","success","raw_payload","placements","dissimilarity_vector","n_words","trial_category","distance_matrix","value"
"consent_form","3561","
    <div style=""max-width:800px; margin:0 auto; text-align:left; font-size: 16px; padding: 10px 0;"">
      <h1>Informed Consent Form</h1>
      <p>You are being invited to participate in a research study titled <strong>""Reproducibility of Psychological Science and Instruction.""</strong> This study is being done by Dr. Bria Long from UC San Diego and associated graduate students in the Experimental Methods course. You were selected to participate in this study because you are an adult in the U.S. and have been a represented population in previous psychology studies.</p>
      
      <p>The purpose of this study is to better understand how well previously published studies in the psychological field replicate online and with different populations. Your participation in this research should last approximately <strong>5-30 minutes</strong>. If you agree to take part in this study, you may be asked to view a set of stimuli, including pictures, sounds, written text, or videos and then giving some responses via key-presses, verbally, or with paper-and-pencil. We may also observe your choices or preferences among an array of stimuli. These stimuli will be taken directly from or closely adapted from studies that already exist in the published psychological literature. Stimuli will include, e.g., pictures of objects and human faces, audio and video clips, short text passages, etc. None of the stimuli will be disturbing, threatening, or offensive. The online and in-person experiments described in this protocol will take no more than 30 minutes. An example game you might play would be to click on an image on the screen that matches a word you hear being said out loud. Your total expected time commitment for this study is between 5-30 minutes, and is specified in the study description.</p>
      
      <p>Your participation in this study is completely voluntary and you can withdraw at any time. Choosing not to participate or withdrawing will result in no penalty or loss of benefits to which you are entitled. You are free to skip any question that you choose.</p>
      
      <p>We will not be asking for any personally identifying information, and we will handle responses as confidentially as possible. Your SONA or Prolific IDs will never be tied to your responses on this survey. However, we cannot guarantee the confidentiality of information transmitted over the Internet. To minimize this risk, data containing anything that might be personally identifying (e.g. Prolific IDs or IP addresses) will be encrypted on transfer and storage and will only be accessible to qualified lab personnel. We will be keeping data collected as part of this experiment indefinitely. This anonymized data (containing neither Prolific IDs nor IP addresses) may be shared with the scientific community or with other participants to be used as stimuli in future studies.</p>
      
      <p>If you have questions about this project or if you have a research-related problem, you may contact the researcher(s), <strong>Dr. Bria Long, <a href=""mailto:brlong@ucsd.edu"">brlong@ucsd.edu</a></strong>. If you have any questions concerning your rights as a research subject, you may contact the UC San Diego Office of IRB Administration at <a href=""mailto:irb@ucsd.edu"">irb@ucsd.edu</a> or 858-246-4777.</p>
      
      <h3 style=""margin-top: 25px;"">Consent Statement</h3>
      <p style=""font-weight: bold;"">By participating in this research you are indicating that you are at least 18 years old, have read this consent form, and agree to participate in this research study. Please keep this consent form for your records.</p>
    </div>
  ","0","html-button-response","0","2.1.0","3569","95mgw06v4x_f3ccht","","","","","","","",""
"","17147","","{""participant_date"":""11/25/2025"",""participant_time"":""1:31 PM""}","survey-html-form","1","2.1.0","20718","95mgw06v4x_f3ccht","","","","","","","",""
"","4099","
    <div style=""display:flex; align-items:center; justify-content:center; height:100vh; font-family:sans-serif;"">
      <div style=""max-width:900px; margin:0 auto; text-align:center;"">
        <h1 style= ""font-size: 24px;"">Welcome! Thank you for participating in the study.</h1>
        <h2 style= ""font-size: 22px;"">The study will be in Madarin Chinese.</h2>
        <h2 style= ""font-size: 22px;"">Please use desktop computers or laptops for the study. Tablets and phones are not allowed.</h2>
        <p style=""font-size:16px; margin-top:30px;""><em>Press any key to continue.</em></p>
      </div>
    </div>
  ","h","html-keyboard-response","2","2.1.0","24819","95mgw06v4x_f3ccht","","","","","","","",""
"","7093","
    <div style=""display:flex; align-items:center; justify-content:center; height:100vh; font-family:sans-serif;"">
      <div style=""max-width:900px; margin:0 auto; text-align:center;"">
        <p style=""font-size:18px; line-height:1.6;"">
          In this task, you will be presented with <strong>90 words</strong> arranged <strong>outside a circle</strong>.<br>
          Your job is to <strong>drag these words into the circle</strong> and <strong>rearrange them</strong> based on their <strong>meaning similarity</strong>.<br><br>
          Words that are <strong>similar in meaning</strong> should be placed <strong>closer together</strong>.<br>
          Words that are <strong>different in meaning</strong> should be placed <strong>farther apart</strong>.<br><br>
          You can place the words <strong>anywhere inside the circle</strong>. There is no single correct answer — 
          we are interested in <strong>your personal judgment</strong> of how these words relate to each other.<br><br>
          <strong>You must move all words into the circle before you can finish.</strong><br>
          After the initial arrangement, you will arrange words from specific categories.
        </p>
        <p style=""font-size:16px; margin-top:30px;""><em>Press any key to continue.</em></p>
      </div>
    </div>
  ","k","html-keyboard-response","3","2.1.0","31913","95mgw06v4x_f3ccht","","","","","","","",""
"","1441","","","fullscreen","4","2.1.0","34379","95mgw06v4x_f3ccht","true","{""placements"":[{""word"":""骄傲"",""x"":65,""y"":409.5,""cx"":83.7,""cy"":426.5,""angle_rad"":2.862,""angle_deg"":164},{""word"":""冰箱"",""x"":391,""y"":555.5,""cx"":409.7,""cy"":572.5,""angle_rad"":1.309,""angle_deg"":75},{""word"":""兔子"",""x"":146,""y"":564.5,""cx"":164.7,""cy"":581.5,""angle_rad"":2.246,""angle_deg"":128.7},{""word"":""反感"",""x"":43,""y"":389.5,""cx"":61.7,""cy"":406.5,""angle_rad"":2.948,""angle_deg"":168.9},{""word"":""协议"",""x"":563,""y"":141.5,""cx"":581.7,""cy"":158.5,""angle_rad"":-0.691,""angle_deg"":320.4},{""word"":""嘴唇"",""x"":43,""y"":266.5,""cx"":61.7,""cy"":283.5,""angle_rad"":-2.915,""angle_deg"":193},{""word"":""剪刀"",""x"":423,""y"":538.8,""cx"":441.7,""cy"":555.9,""angle_rad"":1.152,""angle_deg"":66},{""word"":""长颈鹿"",""x"":146,""y"":545.5,""cx"":171.7,""cy"":562.5,""angle_rad"":2.269,""angle_deg"":130},{""word"":""制度"",""x"":638,""y"":298.5,""cx"":656.7,""cy"":315.5,""angle_rad"":-0.112,""angle_deg"":353.6},{""word"":""过失"",""x"":636,""y"":310.5,""cx"":654.7,""cy"":327.5,""angle_rad"":-0.074,""angle_deg"":355.8},{""word"":""友情"",""x"":282,""y"":162.8,""cx"":300.7,""cy"":179.9,""angle_rad"":-1.853,""angle_deg"":253.8},{""word"":""方法"",""x"":643,""y"":333.5,""cx"":661.7,""cy"":350.5,""angle_rad"":0.002,""angle_deg"":0.1},{""word"":""蚂蚁"",""x"":193,""y"":587.5,""cx"":211.7,""cy"":604.5,""angle_rad"":2.069,""angle_deg"":118.5},{""word"":""沮丧"",""x"":73,""y"":437.5,""cx"":91.7,""cy"":454.5,""angle_rad"":2.757,""angle_deg"":158},{""word"":""沙发"",""x"":396,""y"":534.5,""cx"":414.7,""cy"":551.5,""angle_rad"":1.26,""angle_deg"":72.2},{""word"":""暴力"",""x"":553,""y"":111.5,""cx"":571.7,""cy"":128.5,""angle_rad"":-0.785,""angle_deg"":315},{""word"":""筷子"",""x"":390,""y"":481.5,""cx"":408.7,""cy"":498.5,""angle_rad"":1.195,""angle_deg"":68.4},{""word"":""概念"",""x"":298,""y"":182.8,""cx"":316.7,""cy"":199.9,""angle_rad"":-1.789,""angle_deg"":257.5},{""word"":""麻雀"",""x"":246,""y"":302.1,""cx"":264.7,""cy"":319.2,""angle_rad"":-2.795,""angle_deg"":199.8},{""word"":""椅子"",""x"":73,""y"":207.5,""cx"":91.7,""cy"":224.5,""angle_rad"":-2.689,""angle_deg"":205.9},{""word"":""买卖"",""x"":531,""y"":121.8,""cx"":549.7,""cy"":138.9,""angle_rad"":-0.813,""angle_deg"":313.4},{""word"":""魔力"",""x"":563,""y"":121.5,""cx"":581.7,""cy"":138.5,""angle_rad"":-0.74,""angle_deg"":317.6},{""word"":""结果"",""x"":645,""y"":402.8,""cx"":663.7,""cy"":419.9,""angle_rad"":0.219,""angle_deg"":12.6},{""word"":""敌意"",""x"":651,""y"":372.5,""cx"":669.7,""cy"":389.5,""angle_rad"":0.123,""angle_deg"":7},{""word"":""纠纷"",""x"":650,""y"":351.5,""cx"":668.7,""cy"":368.5,""angle_rad"":0.058,""angle_deg"":3.3},{""word"":""关系"",""x"":243,""y"":158.8,""cx"":261.7,""cy"":175.9,""angle_rad"":-2.04,""angle_deg"":243.1},{""word"":""铅笔"",""x"":369,""y"":642.8,""cx"":387.7,""cy"":659.9,""angle_rad"":1.45,""angle_deg"":83.1},{""word"":""愤怒"",""x"":69,""y"":484.8,""cx"":87.7,""cy"":501.9,""angle_rad"":2.617,""angle_deg"":149.9},{""word"":""团队"",""x"":640,""y"":337.5,""cx"":658.7,""cy"":354.5,""angle_rad"":0.015,""angle_deg"":0.8},{""word"":""洗衣机"",""x"":328,""y"":546.5,""cx"":353.7,""cy"":563.5,""angle_rad"":1.554,""angle_deg"":89},{""word"":""大腿"",""x"":32,""y"":221.5,""cx"":50.7,""cy"":238.5,""angle_rad"":-2.785,""angle_deg"":200.4},{""word"":""慈善"",""x"":95,""y"":454.8,""cx"":113.7,""cy"":471.9,""angle_rad"":2.666,""angle_deg"":152.7},{""word"":""手指"",""x"":15,""y"":243.5,""cx"":33.7,""cy"":260.5,""angle_rad"":-2.866,""angle_deg"":195.8},{""word"":""性质"",""x"":243,""y"":159.8,""cx"":261.7,""cy"":176.9,""angle_rad"":-2.043,""angle_deg"":243},{""word"":""猫"",""x"":154,""y"":603.5,""cx"":165.7,""cy"":620.5,""angle_rad"":2.169,""angle_deg"":124.3},{""word"":""眼睛"",""x"":12,""y"":311.5,""cx"":30.7,""cy"":328.5,""angle_rad"":-3.074,""angle_deg"":183.8},{""word"":""床"",""x"":405,""y"":590.8,""cx"":416.7,""cy"":607.9,""angle_rad"":1.318,""angle_deg"":75.5},{""word"":""鼠标"",""x"":130,""y"":579.5,""cx"":148.7,""cy"":596.5,""angle_rad"":2.256,""angle_deg"":129.2},{""word"":""微波炉"",""x"":358,""y"":570.8,""cx"":383.7,""cy"":587.9,""angle_rad"":1.43,""angle_deg"":81.9},{""word"":""原因"",""x"":634,""y"":374.8,""cx"":652.7,""cy"":391.9,""angle_rad"":0.137,""angle_deg"":7.9},{""word"":""锤子"",""x"":373,""y"":598.8,""cx"":391.7,""cy"":615.9,""angle_rad"":1.415,""angle_deg"":81.1},{""word"":""勺子"",""x"":331,""y"":571.8,""cx"":349.7,""cy"":588.9,""angle_rad"":1.572,""angle_deg"":90.1},{""word"":""缘分"",""x"":13,""y"":377.5,""cx"":31.7,""cy"":394.5,""angle_rad"":3.003,""angle_deg"":172},{""word"":""胳膊"",""x"":3,""y"":282.5,""cx"":21.7,""cy"":299.5,""angle_rad"":-2.989,""angle_deg"":188.7},{""word"":""老鼠"",""x"":110,""y"":557.5,""cx"":128.7,""cy"":574.5,""angle_rad"":2.349,""angle_deg"":134.6},{""word"":""兴奋"",""x"":26,""y"":399.5,""cx"":44.7,""cy"":416.5,""angle_rad"":2.927,""angle_deg"":167.7},{""word"":""耳朵"",""x"":14,""y"":261.5,""cx"":32.7,""cy"":278.5,""angle_rad"":-2.92,""angle_deg"":192.7},{""word"":""社会"",""x"":262,""y"":146.8,""cx"":280.7,""cy"":163.9,""angle_rad"":-1.927,""angle_deg"":249.6},{""word"":""牙刷"",""x"":372,""y"":517.8,""cx"":390.7,""cy"":534.9,""angle_rad"":1.354,""angle_deg"":77.6},{""word"":""过程"",""x"":553,""y"":112.8,""cx"":571.7,""cy"":129.9,""angle_rad"":-0.782,""angle_deg"":315.2},{""word"":""光彩"",""x"":37.9,""y"":457.1,""cx"":56.6,""cy"":474.2,""angle_rad"":2.741,""angle_deg"":157.1},{""word"":""空调"",""x"":328,""y"":513.8,""cx"":346.7,""cy"":530.9,""angle_rad"":1.589,""angle_deg"":91.1},{""word"":""乌龟"",""x"":163,""y"":592.1,""cx"":181.7,""cy"":609.2,""angle_rad"":2.147,""angle_deg"":123},{""word"":""地位"",""x"":428,""y"":342.1,""cx"":446.7,""cy"":359.2,""angle_rad"":0.095,""angle_deg"":5.4},{""word"":""创伤"",""x"":32,""y"":427.5,""cx"":50.7,""cy"":444.5,""angle_rad"":2.836,""angle_deg"":162.5},{""word"":""死亡"",""x"":75,""y"":471.8,""cx"":93.7,""cy"":488.9,""angle_rad"":2.645,""angle_deg"":151.6},{""word"":""快乐"",""x"":60,""y"":447.8,""cx"":78.7,""cy"":464.9,""angle_rad"":2.741,""angle_deg"":157.1},{""word"":""身份"",""x"":25.9,""y"":454.1,""cx"":44.6,""cy"":471.2,""angle_rad"":2.764,""angle_deg"":158.4},{""word"":""婚姻"",""x"":235,""y"":135.8,""cx"":253.7,""cy"":152.9,""angle_rad"":-2.025,""angle_deg"":244},{""word"":""错误"",""x"":100,""y"":485.8,""cx"":118.7,""cy"":502.9,""angle_rad"":2.558,""angle_deg"":146.5},{""word"":""脚踝"",""x"":39,""y"":203.1,""cx"":57.7,""cy"":220.2,""angle_rad"":-2.724,""angle_deg"":203.9},{""word"":""老虎"",""x"":170,""y"":618.1,""cx"":188.7,""cy"":635.2,""angle_rad"":2.086,""angle_deg"":119.5},{""word"":""冷漠"",""x"":565,""y"":184.8,""cx"":583.7,""cy"":201.9,""angle_rad"":-0.565,""angle_deg"":327.6},{""word"":""疾病"",""x"":571,""y"":175.1,""cx"":589.7,""cy"":192.2,""angle_rad"":-0.582,""angle_deg"":326.6},{""word"":""扫帚"",""x"":586,""y"":192.1,""cx"":604.7,""cy"":209.2,""angle_rad"":-0.505,""angle_deg"":331.1},{""word"":""难过"",""x"":9,""y"":368.1,""cx"":27.7,""cy"":385.2,""angle_rad"":3.033,""angle_deg"":173.8},{""word"":""钥匙"",""x"":270,""y"":311.1,""cx"":288.7,""cy"":328.2,""angle_rad"":-2.8,""angle_deg"":199.6},{""word"":""天堂"",""x"":607,""y"":216.1,""cx"":625.7,""cy"":233.2,""angle_rad"":-0.401,""angle_deg"":337},{""word"":""义务"",""x"":298,""y"":173.8,""cx"":316.7,""cy"":190.9,""angle_rad"":-1.777,""angle_deg"":258.2},{""word"":""数据"",""x"":404,""y"":364.1,""cx"":422.7,""cy"":381.2,""angle_rad"":0.406,""angle_deg"":23.2},{""word"":""爱心"",""x"":37,""y"":469.5,""cx"":55.7,""cy"":486.5,""angle_rad"":2.707,""angle_deg"":155.1},{""word"":""内容"",""x"":91,""y"":414.1,""cx"":109.7,""cy"":431.2,""angle_rad"":2.816,""angle_deg"":161.3},{""word"":""现象"",""x"":145,""y"":562.8,""cx"":163.7,""cy"":579.9,""angle_rad"":2.252,""angle_deg"":129},{""word"":""柜子"",""x"":43,""y"":484.1,""cx"":61.7,""cy"":501.2,""angle_rad"":2.659,""angle_deg"":152.3},{""word"":""奇迹"",""x"":304,""y"":151.1,""cx"":322.7,""cy"":168.2,""angle_rad"":-1.72,""angle_deg"":261.4},{""word"":""恐惧"",""x"":53,""y"":492.1,""cx"":71.7,""cy"":509.2,""angle_rad"":2.622,""angle_deg"":150.2},{""word"":""膝盖"",""x"":29,""y"":258.1,""cx"":47.7,""cy"":275.2,""angle_rad"":-2.899,""angle_deg"":193.9},{""word"":""舒心"",""x"":266,""y"":176.8,""cx"":284.7,""cy"":193.9,""angle_rad"":-1.967,""angle_deg"":247.3},{""word"":""债务"",""x"":610,""y"":239.5,""cx"":628.7,""cy"":256.5,""angle_rad"":-0.324,""angle_deg"":341.5},{""word"":""大象"",""x"":196,""y"":615.5,""cx"":214.7,""cy"":632.5,""angle_rad"":2.018,""angle_deg"":115.6},{""word"":""作用"",""x"":620,""y"":251.5,""cx"":638.7,""cy"":268.5,""angle_rad"":-0.275,""angle_deg"":344.2},{""word"":""纪律"",""x"":624,""y"":271.5,""cx"":642.7,""cy"":288.5,""angle_rad"":-0.207,""angle_deg"":348.1},{""word"":""电视"",""x"":438,""y"":572.8,""cx"":456.7,""cy"":589.9,""angle_rad"":1.152,""angle_deg"":66},{""word"":""肩膀"",""x"":53,""y"":227.5,""cx"":71.7,""cy"":244.5,""angle_rad"":-2.779,""angle_deg"":200.8},{""word"":""鼻子"",""x"":49,""y"":246.5,""cx"":67.7,""cy"":263.5,""angle_rad"":-2.844,""angle_deg"":197},{""word"":""斧头"",""x"":396,""y"":354.1,""cx"":414.7,""cy"":371.2,""angle_rad"":0.317,""angle_deg"":18.1},{""word"":""风景"",""x"":407,""y"":579.5,""cx"":425.7,""cy"":596.5,""angle_rad"":1.273,""angle_deg"":72.9},{""word"":""熊猫"",""x"":157,""y"":570.5,""cx"":175.7,""cy"":587.5,""angle_rad"":2.204,""angle_deg"":126.3},{""word"":""骗局"",""x"":650,""y"":286.5,""cx"":668.7,""cy"":303.5,""angle_rad"":-0.145,""angle_deg"":351.7},{""word"":""桌子"",""x"":421,""y"":520.8,""cx"":439.7,""cy"":537.9,""angle_rad"":1.125,""angle_deg"":64.5}],""n_words"":90,""words"":[""骄傲"",""冰箱"",""兔子"",""反感"",""协议"",""嘴唇"",""剪刀"",""长颈鹿"",""制度"",""过失"",""友情"",""方法"",""蚂蚁"",""沮丧"",""沙发"",""暴力"",""筷子"",""概念"",""麻雀"",""椅子"",""买卖"",""魔力"",""结果"",""敌意"",""纠纷"",""关系"",""铅笔"",""愤怒"",""团队"",""洗衣机"",""大腿"",""慈善"",""手指"",""性质"",""猫"",""眼睛"",""床"",""鼠标"",""微波炉"",""原因"",""锤子"",""勺子"",""缘分"",""胳膊"",""老鼠"",""兴奋"",""耳朵"",""社会"",""牙刷"",""过程"",""光彩"",""空调"",""乌龟"",""地位"",""创伤"",""死亡"",""快乐"",""身份"",""婚姻"",""错误"",""脚踝"",""老虎"",""冷漠"",""疾病"",""扫帚"",""难过"",""钥匙"",""天堂"",""义务"",""数据"",""爱心"",""内容"",""现象"",""柜子"",""奇迹"",""恐惧"",""膝盖"",""舒心"",""债务"",""大象"",""作用"",""纪律"",""电视"",""肩膀"",""鼻子"",""斧头"",""风景"",""熊猫"",""骗局"",""桌子""],""distance_matrix"":[[0,0.5452988948805134,0.26620204058317587,0.04398538173002328,0.8642314228043416,0.21996016442852204,0.5812256543721172,0.2464523709646821,0.8919692647741483,0.8856413401089576,0.5013351292170508,0.890932607163985,0.33410505987596484,0.043048947143836135,0.5401185778829067,0.8738151635342779,0.5080673950718577,0.4960315230595732,0.3205880408457564,0.30794879011410886,0.836783212019437,0.8791535351991806,0.8864355358139197,0.897349737391832,0.8984232738493901,0.46903495726041117,0.5851998740433855,0.11405959638004484,0.8855977520490953,0.4619711905792238,0.29067429292640246,0.08177417964575857,0.2638722403207375,0.4677877170862824,0.3208996829243113,0.1690297586372824,0.5789825392313722,0.2770930263252795,0.5199794664675258,0.8711473740782636,0.5519958855578487,0.4755769999559258,0.09194044368925752,0.2148217034465425,0.23528057645632836,0.06010476635286603,0.23811379727559887,0.501025579544123,0.4968856793052173,0.8727000971214159,0.08245418189178684,0.43165161509246386,0.31585694249747936,0.5636476231648225,0.056014641401032315,0.09521476451253878,0.05775105510113777,0.0893844280291664,0.49158507090648706,0.1271171275955297,0.31678743699004747,0.35612053140341415,0.8375871189454097,0.8521066156262488,0.8626495041616103,0.1049910261632973,0.3465136674589574,0.879394185151431,0.5057335413974349,0.5220495587546873,0.09983124645648961,0.03891703736672153,0.26332224997154957,0.11768202133221445,0.5371985612998333,0.12639855351489304,0.23655718800660364,0.46908326424285746,0.8724446389057268,0.3721945339947503,0.881865009629735,0.8799209270703581,0.6218738539403531,0.27769378572456976,0.24920142838561854,0.5122127362186814,0.5831440747406619,0.28234268219945063,0.9136137894886243,0.5695212187232984],[0.5452988948805134,0,0.3737870788667881,0.5887211582325208,0.6847736285070974,0.6909691190502978,0.053656352651460335,0.36313942962282714,0.5441533948977236,0.5288911015183538,0.6222256282334298,0.5125978570742642,0.30551597519794427,0.5177232603098513,0.03151622505416093,0.7220091676812861,0.1117643980316223,0.5863734276183952,0.44528053971072,0.7201410605261646,0.6960000619705227,0.7131446364262914,0.4520915447121486,0.48520390181042095,0.5031876046160537,0.6465124625844932,0.1364415292949258,0.5031211074283245,0.5051063055368322,0.08529835455034719,0.7491253287915391,0.4770645109853002,0.7464402470884524,0.6450784187166003,0.3791623666692491,0.6885145796820605,0.05371153098193675,0.3997138284047267,0.04473000031700019,0.4619619880992342,0.07039690769602741,0.09369117740298863,0.6380901717967511,0.7247458519547814,0.4286565851898724,0.6061349212169006,0.7303582461901764,0.6544192288458611,0.06296177593135112,0.719996145235302,0.5595780031404446,0.11404337531837434,0.35200203009459136,0.3298816064635983,0.5819423368645126,0.49886929389937973,0.5312909297733427,0.5785074617576877,0.6837828974767659,0.4565192225141605,0.7608695994487479,0.3501456638301822,0.6252327910596175,0.6425813166903404,0.6296881431139183,0.6497765984016806,0.41582206199948346,0.6142178210739571,0.5997504740310594,0.29200141305658367,0.5561625501819866,0.5061245470387268,0.37523532760573736,0.5422812950199799,0.6315706923350536,0.5249015561221883,0.7155856097458533,0.6088324048855058,0.5870452202591412,0.3108018923472902,0.5811223717595491,0.5608348276960541,0.07519281561486967,0.7194912801433971,0.7040774318412645,0.3067298029503659,0.04262638002780783,0.35742969293071847,0.5701283669302143,0.0685752877801822],[0.26620204058317587,0.3737870788667881,0,0.3093314989159228,0.9077871396478805,0.48115214020658814,0.4243292962539981,0.029467028591201316,0.8546936907717895,0.8433914463702411,0.6475657879911676,0.8374821546094618,0.07857366630224999,0.22272046408340854,0.3839342182102456,0.9307445883457792,0.39302290472630785,0.6272900799272918,0.4282104221484312,0.5563012082953279,0.8965081998925145,0.9298391684210205,0.8014366940566447,0.8255525021200949,0.836105341889027,0.636902585590087,0.36033811708382435,0.16801101960568599,0.8307442802814674,0.28911418151838936,0.5518024464759015,0.18352909749044136,0.5292267893009609,0.6354137932325401,0.05819296697106477,0.4367521480309324,0.38636145098403574,0.032043886450430006,0.33387441770524945,0.7999418265015258,0.34994591920883367,0.2819079323450497,0.349764640974655,0.4825097237234439,0.054612892508810795,0.3108018923472902,0.5044304927454368,0.6619694288691127,0.35172572292978244,0.9291514170624698,0.2316399026784791,0.2876565349980061,0.04822358212734142,0.5481826632206145,0.2713134060919175,0.17710199142937358,0.22026975829551682,0.24810121360458207,0.6686000608311183,0.1378879409089965,0.5753209155134427,0.08851400229613468,0.8640001632082293,0.8807905703030955,0.8808274901368168,0.36493026757557423,0.43021155305459696,0.8829850158608069,0.6401101819111609,0.4984924408444448,0.21981727550304636,0.24348169628757854,0.0013575763565355208,0.19840599753527713,0.6758385302642336,0.17880291376391438,0.5004211518239385,0.6196239686239564,0.865709515881379,0.10780635858695435,0.868035820251692,0.8567618211955061,0.44567026678675303,0.5336591540303507,0.5074323527300766,0.4985908571726403,0.3986874571615244,0.01765096215890872,0.8796217636322782,0.42471874342614174],[0.04398538173002328,0.5887211582325208,0.3093314989159228,0,0.8804246218309717,0.18676705038267583,0.6235478927381732,0.2906863231938267,0.9199327400239049,0.9142998511331817,0.5026569619491461,0.9209876180532043,0.3787435214367604,0.08512273709850407,0.5826829318563314,0.8876757087370315,0.5480370740556012,0.500887526061341,0.33675594530140945,0.2808485895669845,0.85048703004411,0.8940311294541678,0.9202856357476538,0.9296063836302494,0.9295308733612888,0.46576645248564785,0.6305705585403799,0.1498415552351205,0.9158633283610091,0.5060029110575366,0.2562072447045443,0.12637904190436053,0.2260504184987287,0.46461102838764723,0.36271502785911314,0.12696255423800648,0.6232977667347033,0.31837856047376784,0.5642520236955669,0.9034937365687193,0.5967824920189846,0.5203473824609521,0.04793328713717984,0.17334465301043653,0.27535487950350895,0.02866274566932771,0.1993876768729536,0.4988009112472701,0.5391258888874001,0.8866519298349992,0.10240318840158752,0.4745212110219663,0.3590786414825744,0.5922883601014585,0.05903075877284904,0.13379176296754441,0.09158322618235787,0.10091788545760301,0.4854156156568059,0.16991345581236614,0.28373732432513044,0.3989411950002219,0.8567784225995585,0.8708120640716922,0.8829087049846053,0.0598893686546382,0.36607067268636956,0.9017243049812844,0.5096730050912007,0.5524714252561325,0.12128328391742668,0.08110942720785712,0.30644407847895094,0.14344321820374362,0.5395165861005309,0.15643379484288078,0.20061272389386564,0.47013781002271077,0.8963375634445729,0.4162752840774934,0.9066975774083353,0.9060677432750208,0.6651668021640891,0.24694331520975157,0.21757721275262504,0.5415641439671398,0.6270541941334167,0.3259373738836784,0.9409949565292812,0.6111070031718379],[0.8642314228043416,0.6847736285070974,0.9077871396478805,0.8804246218309717,0,0.8172023694661641,0.6434878777604249,0.8796430408312549,0.2648330026608449,0.28029197984702015,0.42989136029875546,0.31689163466568765,0.8856069981801479,0.8748426532801303,0.6521699320471652,0.04687971852806642,0.582472289043801,0.40907249005904806,0.5425522981956654,0.7553730869441494,0.055916000485575684,0.02908667178090853,0.4178679723212124,0.3768932372045224,0.3464500629835887,0.48907357663584167,0.8215033016034498,0.9194920790837248,0.32084516458202167,0.7099714949611162,0.8205389164508871,0.8607263368695747,0.8517984013212965,0.4891590763300345,0.9502022328663525,0.881217457828517,0.7313508020810212,0.9413367876093478,0.7223465337507664,0.3719422341892048,0.7567014016444082,0.7469854857491416,0.9146912902982243,0.8825173890632076,0.9400085450787063,0.9105085625932946,0.8587636886775544,0.4593373861467362,0.6446335489406394,0.04485142546426028,0.9364317594906377,0.6725886446261075,0.9209806191654706,0.3687563567595626,0.9217760819788999,0.9006589437140257,0.9001156086124166,0.9499038614743811,0.5006701082021046,0.8818535489058447,0.8061907262579642,0.9442638650453766,0.06497971432923255,0.05149342313063764,0.08369776070623189,0.9148356584267089,0.5168177432639125,0.13118913544679123,0.40717257949490343,0.4173712713862272,0.9474402923287547,0.8329718833186549,0.907121901228674,0.9518546839296683,0.3952443577971031,0.9459950768317322,0.8352514065484379,0.456358026293606,0.16485655927562196,0.9161851529636813,0.1881311865031128,0.2183033393170571,0.686054618392119,0.7902391827580426,0.801590550839933,0.41245838507467,0.7102530638686743,0.9026943072052802,0.25733683486065356,0.6186320227783961],[0.21996016442852204,0.6909691190502978,0.48115214020658814,0.18676705038267583,0.8172023694661641,0,0.7142288458343259,0.4575818002206784,0.9106575878069125,0.9087749978087305,0.3972442188137885,0.9227046153430648,0.540886033627523,0.2642472625761687,0.6769656886767816,0.814478507654183,0.6233859785155905,0.4092864716786301,0.31400629003769115,0.09979655913764397,0.7776438836091781,0.8248948560239704,0.9434173697459524,0.9432822431032066,0.9367783750660731,0.34614268515763286,0.7607676448685553,0.33517364002603056,0.9188435511820582,0.6177918389360483,0.06938692802884641,0.29767073174832803,0.05394099073083642,0.3454199981175029,0.5383829307021624,0.08212285653177556,0.7346610110788645,0.49579935346704346,0.6768108588557914,0.9183106517472422,0.715517745092207,0.641097055541526,0.1744934047161296,0.06442134200362414,0.455609742209865,0.2037323330423545,0.043519597633844186,0.3804687888567778,0.6323392096012203,0.813857860372216,0.2905118358123568,0.576224304940396,0.5298412765301468,0.5991419959320179,0.2455149917830299,0.31670448878038604,0.2773870979797414,0.28700480322588756,0.3539504726105126,0.3454936176905954,0.09556694895826441,0.5709065396503052,0.8072920580089054,0.8187676228227772,0.8374814423265639,0.16262951778357104,0.3526517424675882,0.8653109494919624,0.41378508987265417,0.5709974202839809,0.3093729605509373,0.23622030686644832,0.4783374551175223,0.3317411460485725,0.43527943510592765,0.34432713935941817,0.023384829303972066,0.3663806068146555,0.8674602218217226,0.5818318695636269,0.882083849094928,0.8879418637010833,0.7637638763569515,0.06010476635286603,0.030434782402769464,0.5552968171849896,0.7333939502232495,0.4955023878076554,0.9282160129692714,0.6959906543813649],[0.5812256543721172,0.053656352651460335,0.4243292962539981,0.6235478927381732,0.6434878777604249,0.7142288458343259,0,0.4119295096592467,0.4922029977801049,0.47657261950654706,0.6132207927399784,0.4592331287100992,0.35834569160605334,0.5563095266861355,0.04034806560446957,0.6823632664337332,0.09982847190782503,0.5760807729237293,0.45093572209077465,0.7363551718615003,0.6579078055959539,0.6724426152309633,0.3970268295312174,0.43058070306870755,0.449098083319899,0.6421662331184955,0.17786288012792925,0.5466686253057486,0.45169924683919305,0.1336878120124002,0.7694354275899108,0.5168017151704764,0.7695895302085105,0.6407830555523366,0.43241053649787675,0.7175445432524146,0.08679690492789091,0.451301951288921,0.09987747775828619,0.4075801922651616,0.1180344745641859,0.14809624303021365,0.6730112562315613,0.7517805564441616,0.47847906471554535,0.6426054575163669,0.7550258525014759,0.6472162663730803,0.08290364164086636,0.6803130764450052,0.6011312690244205,0.14885397220641453,0.40477475852405875,0.2996899886779454,0.62086252498258,0.5409983585223053,0.5713732959108136,0.620055331066555,0.6792415687515396,0.4995550392055309,0.7792924029931686,0.4043609796005972,0.5823739630594671,0.5995831050241169,0.5849568297214381,0.6840125449423653,0.4184328982558953,0.5671469120965261,0.5890982336934781,0.2674904676761223,0.598862712939564,0.5413893485850534,0.4256360579500181,0.5861986604758294,0.6193192848286091,0.5693876801531372,0.7390539231687886,0.6025220213820961,0.5388696472947233,0.36523030262891887,0.5318821921630769,0.5105785477240813,0.0553592973969658,0.7388030460264597,0.7252309436037369,0.28422736143213184,0.06527504339782528,0.40854590583271866,0.5181445478545792,0.026194492576027982],[0.2464523709646821,0.36313942962282714,0.029467028591201316,0.2906863231938267,0.8796430408312549,0.4575818002206784,0.4119295096592467,0,0.8316856592797254,0.8207569764504898,0.6165792823569619,0.815797130103925,0.0872600153427256,0.2042226983652741,0.3708532951744789,0.902018886736202,0.3742831702872484,0.5963032525540101,0.3972146272157543,0.5302017299198368,0.8675990473643896,0.9013961711951134,0.7826591562394094,0.8055377895661109,0.8152248884899996,0.606132144385231,0.36120232385884493,0.15703403731276622,0.8091594443063379,0.2770930263252795,0.5279336663294115,0.16315311877385547,0.5067757698812906,0.6046412360194442,0.08773385092502162,0.41670137101077454,0.37991930697722504,0.061309731064150295,0.3253362334531725,0.7797647901075295,0.34504152255756515,0.27394608741884185,0.33325210821159607,0.4619711905792238,0.06681212881959908,0.29470478959295116,0.48251940705313434,0.6310808904705352,0.3363832664767298,0.9004440913379254,0.22055137957180887,0.270705281583625,0.07158178508530247,0.5220110630862485,0.2572055299004824,0.16264429298041697,0.20485252673847076,0.23804092952206077,0.6379585465714998,0.12056713347082038,0.5507856312846322,0.11276622185403304,0.836652647614093,0.8533597995234501,0.8539952908651853,0.3481373862208104,0.39938804293595,0.8570641594375508,0.6091176247784579,0.4724745952024363,0.21077042301665844,0.22075595656685748,0.027786924800671423,0.1912484190669779,0.6448430239419806,0.1719445603276749,0.47750729515325524,0.5886714456891298,0.8404308508614898,0.12423422338884454,0.8432652322602803,0.8326456423490615,0.4367809150082583,0.5087912060282133,0.48310005276446943,0.47191556905978227,0.3907801814295265,0.03722784414274783,0.8564299988128925,0.4104690632914035],[0.8919692647741483,0.5441533948977236,0.8546936907717895,0.9199327400239049,0.2648330026608449,0.9106575878069125,0.4922029977801049,0.8316856592797254,0,0.017093050668372498,0.5816578109941599,0.052593814270551695,0.8107666104134985,0.8892056714929264,0.515941937263118,0.3129293893751497,0.4702998615656847,0.5482297065639137,0.5985998188825874,0.8745618187560205,0.31457422650306704,0.2927561759495721,0.1586515843571286,0.1134888680787931,0.0816593195540263,0.6398193780251987,0.6674684587683629,0.9150876247247559,0.058251798551016414,0.5978873157788558,0.9336398003274796,0.8635299813060388,0.9559151845319334,0.6393108850993883,0.8833454295288724,0.9570050355736925,0.577573499087146,0.8872024940482937,0.5888616172167738,0.11558835224898578,0.6117095900815092,0.6278004652838675,0.9628806134177331,0.9708848483647553,0.8987825702574838,0.9480389831638706,0.955414489334769,0.6191045936502885,0.5263274814896648,0.3109795244775619,0.9487306490502596,0.5763569328475929,0.8534127066467295,0.32684033981539984,0.9469672446927316,0.9003061119818948,0.9123970182853269,0.9653596205677005,0.6637366848595192,0.8706162872323646,0.9269978443891624,0.8661297508681006,0.20518837613809204,0.21329378094664128,0.1796288561692829,0.9672848851523312,0.5621674114234998,0.13310185350996653,0.5528183477921503,0.3705463308945379,0.9550433896679243,0.8543863806875562,0.8548802869954644,0.9526731497422539,0.5572987198189733,0.9418482958701214,0.9328125502396308,0.5976087974270796,0.0984460871577383,0.8311496680706203,0.07551652899553941,0.04502894286416087,0.5182811741275122,0.9006041833000384,0.9036631275822582,0.37862791903533316,0.5553425020181909,0.8444018665320386,0.024448974569545208,0.4741528310183816],[0.8856413401089576,0.5288911015183538,0.8433914463702411,0.9142998511331817,0.28029197984702015,0.9087749978087305,0.47657261950654706,0.8207569764504898,0.017093050668372498,0,0.5856195261809696,0.03527391291608616,0.7983112104772871,0.8820095823830733,0.5010447920899324,0.32854987634503674,0.4571119367420378,0.5515498745163008,0.5956465253537558,0.8746581150187648,0.32892227625244524,0.3086371371032836,0.14059161753842184,0.09612182673490373,0.06479340583098728,0.6433149065981376,0.6511666952528351,0.9066090140230957,0.040253945429365216,0.5840112409089779,0.9331033514602388,0.8556680422938333,0.9546611167338644,0.6427655245069434,0.8711632721501609,0.9537378855852148,0.5615077886404066,0.8757527410548617,0.5738207769380415,0.0971051624209742,0.595989167863827,0.6134074882963046,0.9577052619973795,0.9684621243377484,0.888072276908969,0.9421914444475409,0.9536250259170116,0.62339902920123,0.5124217829147604,0.32657284310809354,0.9412267936780604,0.5635175491646834,0.8412639386490818,0.32056839631615797,0.9403071897190188,0.8921278853299753,0.9049951936941047,0.9580151292325417,0.6680178728930444,0.8618367264126772,0.9270473130346728,0.8533449959079041,0.2193422213743129,0.2282593370282297,0.19508344054306528,0.9623851045471523,0.5587712984526374,0.14950312198374768,0.5565648997428962,0.36302273624769066,0.9472204718497671,0.8477663430073309,0.8436282341980397,0.9444234284144339,0.562199007675078,0.933312565531488,0.9311546176322147,0.6006879082458414,0.11422006224116528,0.8180606556250681,0.09205320318208521,0.060935676499735573,0.5017013078776741,0.8999700920237309,0.9024195329013682,0.3719206785555898,0.5392872024194414,0.8328198107044366,0.04100438133319239,0.4589889214028979],[0.5013351292170508,0.6222256282334298,0.6475657879911676,0.5026569619491461,0.42989136029875546,0.3972442188137885,0.6132207927399784,0.6165792823569619,0.5816578109941599,0.5856195261809696,0,0.6097194890113868,0.6626056181661865,0.5267575229822881,0.5935110898538973,0.4207331927499099,0.5134676775938419,0.03767871686765523,0.21872664114390705,0.3256264832196236,0.3847905317018948,0.43328941990747877,0.6646541570004681,0.6481334767982595,0.6315086293995238,0.0584865481819474,0.7452627822743213,0.5895008432286479,0.6082296650566889,0.5912923223807959,0.3915618503591083,0.529295225878435,0.4254312584058954,0.05834972273788025,0.7039252302829974,0.47027244289949705,0.6773230924929325,0.6773568548339234,0.6358603916206965,0.627523790953437,0.6803147950074689,0.6290754390429156,0.525264855610707,0.46317342518107274,0.6574459198365574,0.5321189528542215,0.4356303676637279,0.03767871686765523,0.5591236025687323,0.4203390664202051,0.5838116862404021,0.5404019063920263,0.6804565443122765,0.3524445733659476,0.5557446025620235,0.5678444155433142,0.551514364548819,0.5922500962747012,0.08144776492568559,0.5660366511499418,0.3755534531810017,0.7162565571407986,0.4330145620444951,0.4412932310085836,0.4660124581242962,0.5213866798936838,0.2262402821510621,0.5026507565112961,0.02819338616466117,0.3588133864743371,0.5992845240101439,0.4816851797121831,0.6457406966226389,0.6114984653179354,0.03661501340338045,0.6125007902386209,0.41234741495273153,0.031016023826079753,0.5141080131116721,0.7037414950046837,0.5333875008216776,0.5477917301415337,0.6700272196547122,0.3627219765948135,0.37742843059339415,0.3393831596303803,0.6643226160580311,0.6511379696993851,0.5927591447698378,0.586383871733558],[0.890932607163985,0.5125978570742642,0.8374821546094618,0.9209876180532043,0.31689163466568765,0.9227046153430648,0.4592331287100992,0.815797130103925,0.052593814270551695,0.03527391291608616,0.6097194890113868,0,0.7895284800295023,0.8854749014472754,0.48597608289497507,0.3651901715438944,0.44718338260773927,0.5747491500113697,0.6081134471889478,0.8921344939088153,0.36498100983357123,0.3453539298257436,0.10475612676125928,0.05941650557882158,0.02803527725806442,0.6666145534681944,0.6311575714439512,0.9072456937916162,0.006123509848612322,0.5717474738387816,0.9494200867362906,0.8577291909459757,0.9696826875114612,0.6660036012699213,0.8629961668281728,0.9650397422479169,0.542479648984462,0.869436154640242,0.5581147918327317,0.06332775939507705,0.5780577122979117,0.5995770034684971,0.9652712676406064,0.9813365663203092,0.8835559594171057,0.948409118511574,0.9676789965794337,0.6479303495830447,0.5002709527752882,0.3632048464208055,0.943961277310891,0.5541779786827755,0.8332195440930796,0.3278771367168331,0.9448399378889133,0.8934481062974644,0.9079911874097581,0.9610744749348995,0.6924646240692367,0.8618551846140784,0.9443904773153284,0.8436231458154652,0.25539195923331137,0.2646961077963147,0.2317192413614784,0.9704980643472307,0.5705060017048245,0.18630778714402993,0.5803982358436253,0.36735497331304684,0.9492561856587124,0.8524963750155554,0.8378429110339847,0.9455250192276722,0.5877163464300779,0.9337910157747268,0.9454700814841756,0.623420779738332,0.15098170925111773,0.8075679134308741,0.12884560752399096,0.09774035858514976,0.480968476646822,0.9161481233394514,0.9175121257410944,0.37792139806834335,0.5203434306517385,0.8262266133671102,0.07121399689832406,0.4432219866829183],[0.33410505987596484,0.30551597519794427,0.07857366630224999,0.3787435214367604,0.8856069981801479,0.540886033627523,0.35834569160605334,0.0872600153427256,0.8107666104134985,0.7983112104772871,0.6626056181661865,0.7895284800295023,0,0.29254108001140927,0.31965436492316823,0.9121041795333553,0.3409377365269227,0.6383798570827852,0.4427008791236883,0.6085194693909302,0.8792591211607047,0.9093810916470656,0.7459092221763576,0.7730220170602212,0.7858596905237162,0.6590528763599046,0.28093638378288954,0.24485366065609257,0.7825250189477132,0.22473364006364405,0.6105846897362422,0.2508864452323124,0.5914149399067875,0.6575323347171843,0.07302772718809654,0.5037444996781939,0.3123421625880967,0.09568888157915116,0.2630035077007514,0.747942326243535,0.274579159416009,0.21107576188645988,0.42188890716748795,0.5485741279305093,0.13357718975944177,0.38342621255236015,0.5678176604911889,0.681194748751009,0.29248194089616175,0.9103956983319841,0.3085770622059233,0.23385595699926723,0.04495564783420161,0.5185104497049392,0.345951329585189,0.25135302777528434,0.29364341751253614,0.32570219246227466,0.6927968361083607,0.20932802962542402,0.6322643910246316,0.05719358996767292,0.8376228675045415,0.8547693549951968,0.8518026445028622,0.4367080046943101,0.4375686797909106,0.849807257049103,0.651725156057846,0.46878470248646287,0.2979112586275213,0.30631213669781754,0.08103949299806565,0.2772859565244266,0.68766786069928,0.25773527720661393,0.5616458173441372,0.6369044210064388,0.8299385489855107,0.04157902328783366,0.8302654431739535,0.8166182205742013,0.3741994735115294,0.589792216942197,0.5651357759808048,0.4718987385746764,0.32630573577273536,0.05941650557882158,0.8361962672849934,0.36209541406688694],[0.043048947143836135,0.5177232603098513,0.22272046408340854,0.08512273709850407,0.8748426532801303,0.2642472625761687,0.5563095266861355,0.2042226983652741,0.8892056714929264,0.8820095823830733,0.5267575229822881,0.8854749014472754,0.29254108001140927,0,0.5147585396189446,0.8867422191644896,0.48840970667824724,0.518621005853787,0.33468790872453347,0.35057093883305546,0.8499554425434217,0.8910586450106495,0.8757315832183263,0.8888938356993956,0.8915429373986058,0.49810296740897,0.5500210514426391,0.07129063182012732,0.87987306774383,0.43288510621872833,0.33504289901805273,0.04140907557992587,0.30844818307139094,0.49679680239964763,0.27670162653758557,0.21277556435306966,0.5486413505956065,0.23271338486257254,0.4899250430390698,0.8626216658812283,0.5199794664675258,0.4438133484315385,0.12836838269633838,0.2588308312901322,0.19070856839976796,0.09099543740275723,0.2826397333561497,0.5291547226695803,0.4724609242459398,0.8855398426593336,0.06008765352705655,0.4059873227555848,0.27245808472530203,0.5611724708138979,0.06307505351289304,0.051220236652998304,0.023955358852222303,0.0749716507878956,0.5225718130162557,0.08331288726176864,0.3609105934680387,0.31243522081038755,0.8451298403191321,0.8601305295398871,0.8689733375852854,0.14287956136474494,0.35670978983885027,0.8833768003335449,0.5290235468812999,0.5174656861268929,0.07220594553407829,0.04354274118269,0.21983400356518232,0.0834416479097617,0.5616337492459469,0.08762995457930678,0.28109949405681783,0.4949111336920411,0.8746514281202555,0.32969454766197,0.8829467420099468,0.8794315758454218,0.5944469344367456,0.32140807696067186,0.2931660162160477,0.5091214969172327,0.5540743080066057,0.2392844682348222,0.911531978042628,0.5462999056259377],[0.5401185778829067,0.03151622505416093,0.3839342182102456,0.5826829318563314,0.6521699320471652,0.6769656886767816,0.04034806560446957,0.3708532951744789,0.515941937263118,0.5010447920899324,0.5935110898538973,0.48597608289497507,0.31965436492316823,0.5147585396189446,0,0.6891951976449203,0.08012389345017568,0.5572426676783102,0.42178730190289865,0.7021034379379183,0.6630599684939396,0.6804539841848527,0.4296212938250846,0.4609588335120284,0.4777217977871248,0.6193420653346172,0.16948643060275248,0.5047920259320293,0.47855239230153435,0.09364243357069746,0.7333939502232495,0.47510373318683186,0.7323999424333237,0.6179245713207797,0.39402250130639016,0.6782631845794554,0.08486488078277654,0.41146853949900764,0.07166299799751244,0.43715610304390734,0.10315651867985251,0.11327227624811884,0.6321451474178539,0.7131659511072522,0.43771358900823826,0.6014191601573796,0.7172531800109426,0.6262964347310475,0.04314242471446533,0.687186307770355,0.5593031086685708,0.10724074029785326,0.3659380416346123,0.29690499664511527,0.5792853228759933,0.4991380502225649,0.5296539541135158,0.5782294157265605,0.6565736686525825,0.4576761235084551,0.7440688264674155,0.36741278241531133,0.5929172582957037,0.6102869194171249,0.5978018617176927,0.6433024225354949,0.3909799241511898,0.5830877345717181,0.5705266292940671,0.25946505335960185,0.5569897864745501,0.5003940712195174,0.3851711936624557,0.5443274983770244,0.6019201439210429,0.5275380036047208,0.7017247868018405,0.5809629878184074,0.5563915276177283,0.3288018315238263,0.5509971351985331,0.5313222457599509,0.08558882892978562,0.703168451843026,0.6888133873991502,0.27448632896404734,0.06938692802884641,0.3684762196586459,0.5419198406680588,0.042037583124740784],[0.8738151635342779,0.7220091676812861,0.9307445883457792,0.8876757087370315,0.04687971852806642,0.814478507654183,0.6823632664337332,0.902018886736202,0.3129293893751497,0.32854987634503674,0.4207331927499099,0.3651901715438944,0.9121041795333553,0.8867422191644896,0.6891951976449203,0,0.6174227781656669,0.4038568056258431,0.5517399496770123,0.747842631571891,0.03572201195293241,0.02011899923092883,0.46627171068209405,0.4252655688982504,0.39475354205094154,0.4785566881110543,0.8593641034302296,0.9342893437620465,0.3691975804192208,0.7433460221270076,0.8136394498243166,0.874804625530523,0.8465089143761956,0.4787904588722265,0.9749961645084151,0.881456364180212,0.769778241168661,0.964200452417049,0.7583649293045766,0.42033784426719023,0.7938756334717636,0.7809439486337693,0.9199963210733534,0.8802080284773047,0.9608116209698463,0.9178537660534708,0.8549687267374233,0.4472386373956259,0.6795323323658633,0.000612350984861241,0.9481518897345587,0.7042530439987088,0.9460964797286767,0.40015307817195256,0.9312962117218013,0.9149165606218761,0.9121528642605017,0.9609488399389294,0.4867191077923389,0.8981567811527261,0.7977644061095349,0.9708280776096048,0.11232730402114526,0.09980453827238041,0.13194100742085474,0.919328361129225,0.5287123273582248,0.17881460962420104,0.40036093332045336,0.4475626392707794,0.9599040464220726,0.8440226362145951,0.9299498277463639,0.9654764303779058,0.38447218676374734,0.9605284643421999,0.8314928125074215,0.4490939227411043,0.21297231620276666,0.9439827177715621,0.23607097109051617,0.26644265224608865,0.7264250349096254,0.7842373718406639,0.7972307533775366,0.4409755753115972,0.7489738941177385,0.9265104752046999,0.30477471191301747,0.6569820018350927],[0.5080673950718577,0.1117643980316223,0.39302290472630785,0.5480370740556012,0.582472289043801,0.6233859785155905,0.09982847190782503,0.3742831702872484,0.4702998615656847,0.4571119367420378,0.5134676775938419,0.44718338260773927,0.3409377365269227,0.48840970667824724,0.08012389345017568,0.6174227781656669,0,0.4767941312614062,0.3505193178545982,0.6399140864293544,0.5897786623298544,0.6099181390116464,0.4069666699820295,0.43147206883483097,0.4434781117154114,0.5411857165371886,0.24763540796532896,0.4899083524483979,0.44013721963386726,0.12881864144731534,0.6758093113347055,0.4519101685138707,0.6784079639012279,0.5397930213518812,0.4147242477394646,0.632969354040065,0.1663943085170819,0.42383272984566295,0.14058007413927232,0.4060954248478667,0.18006861861396445,0.16372704322316603,0.5971674863341715,0.6646559159582568,0.44262413899978015,0.5696731278203169,0.6653696695193619,0.5469019084481654,0.06063405837450106,0.6154620449852128,0.5387732325838984,0.1055622897559785,0.3850982493528822,0.2195126141893993,0.5527228795888316,0.4809194166431928,0.5062705686750116,0.5574262159270754,0.5783148239915575,0.44247468325567657,0.6842131862930533,0.3949837919349751,0.5256704260590399,0.5431274632990617,0.5334237102358547,0.6069768152470006,0.3173994001746636,0.523167384485684,0.4899779723061456,0.17931552016990657,0.5391810234817899,0.46765319539374683,0.39369341795441193,0.5296996824925537,0.5209764388395802,0.5146348065267737,0.6482971049582774,0.5019327108844408,0.4991479736517869,0.35941873401166197,0.496416286478731,0.4797980311366376,0.15651292582341322,0.6445012253997562,0.6324557366889824,0.19356616681256222,0.15073564663372574,0.380299546777219,0.4960042977375982,0.07521724835642174],[0.4960315230595732,0.5863734276183952,0.6272900799272918,0.500887526061341,0.40907249005904806,0.4092864716786301,0.5760807729237293,0.5963032525540101,0.5482297065639137,0.5515498745163008,0.03767871686765523,0.5747491500113697,0.6383798570827852,0.518621005853787,0.5572426676783102,0.4038568056258431,0.4767941312614062,0,0.19769792953061133,0.3449691596507154,0.36718501926252056,0.41489863377959146,0.6274511381862173,0.6118853604441721,0.5959624963918381,0.09033452669341492,0.7110115929858544,0.5786797591466594,0.5730381691042763,0.5579707190120622,0.4099476836581292,0.5180503765635732,0.44152886369074873,0.0897330472171627,0.6825938529082107,0.47852544498315724,0.6415542843474541,0.6578412730423279,0.6012403378189153,0.5909008992229331,0.6455813655586702,0.5961194487380319,0.5267752674297829,0.47512340055803054,0.6401043379049084,0.5307646161702394,0.449582008601015,0.07640867863294179,0.5236761224261766,0.40328418815876527,0.5771580152223331,0.5072665591565974,0.6582604191306952,0.31323662691587223,0.551675708910259,0.5572918210747713,0.5437473885488331,0.5866969097527016,0.11879648059869843,0.552581211339612,0.39618239563889746,0.6930727652137305,0.4072248720187757,0.41656487424814787,0.4395916425635346,0.5240242605013781,0.19950364543815208,0.47424921357393673,0.012247019697224644,0.31997412866571673,0.5918901495805041,0.47365479375527125,0.6255853718927481,0.602742526612701,0.04785955711438272,0.6025190921492826,0.42610512991404337,0.04831088165985175,0.48389865836744,0.678886481507716,0.5024742530335887,0.515638320903826,0.6328142041525953,0.3796980629803825,0.3918955759901061,0.30059037863808896,0.628128085837851,0.6298790817629809,0.5601926027013381,0.5491021457370417],[0.3205880408457564,0.44528053971072,0.4282104221484312,0.33675594530140945,0.5425522981956654,0.31400629003769115,0.45093572209077465,0.3972146272157543,0.5985998188825874,0.5956465253537558,0.21872664114390705,0.6081134471889478,0.4427008791236883,0.33468790872453347,0.42178730190289865,0.5517399496770123,0.3505193178545982,0.19769792953061133,0,0.30039406013972697,0.5147473955492544,0.5570642405835422,0.6284423854736062,0.6277455907844052,0.6215315290973129,0.21789193120999123,0.5529881247259523,0.3878910400687101,0.6040508302572267,0.39650753710800696,0.3485968629403818,0.32722765057121994,0.36334081541565105,0.21636139146887948,0.4839834523212562,0.3569772549798403,0.4979475199780784,0.45862779150831773,0.44835098160611503,0.6027863504168686,0.49254162689683345,0.431366757756879,0.3733281255675841,0.37169280930316134,0.44129799410941706,0.3667312022682653,0.35905654435130907,0.23747282818389853,0.3808898198154073,0.5506120573975263,0.3957033881536118,0.3460183969380908,0.4602488630330597,0.28373859770571264,0.37810231857501336,0.36727745678277995,0.36017270599631895,0.40795526461059956,0.253610370417666,0.35769300124764364,0.349737954897555,0.4960207838371295,0.518787978368365,0.5326422648763885,0.5455302774256514,0.3750929810424068,0.03770859084862127,0.5665814408228241,0.21039968697270983,0.25830372347722685,0.4083050338752447,0.2912191682614406,0.4264732495468387,0.41584876216856215,0.2460977205733239,0.41307697961125484,0.33742973093856915,0.1927162392968539,0.5639150175089652,0.48416250162767915,0.5762541792950269,0.5790461804910481,0.5065324807869322,0.3152871260157608,0.31187488667415536,0.2415076721698931,0.48934466448013403,0.4312118977175534,0.6174104534178079,0.42726429246316583],[0.30794879011410886,0.7201410605261646,0.5563012082953279,0.2808485895669845,0.7553730869441494,0.09979655913764397,0.7363551718615003,0.5302017299198368,0.8745618187560205,0.8746581150187648,0.3256264832196236,0.8921344939088153,0.6085194693909302,0.35057093883305546,0.7021034379379183,0.747842631571891,0.6399140864293544,0.3449691596507154,0.30039406013972697,0,0.7117518361198438,0.7600648894500108,0.9238147889236842,0.9186640167335147,0.9088779721307206,0.2691443627524358,0.8044570755707915,0.42317867755838856,0.8889991089353609,0.6543657059523388,0.06479340583098728,0.3787027209768634,0.10297323655848094,0.26872757792984436,0.6151904756006243,0.1830462252202015,0.7679091515504597,0.574601996271066,0.7121331962578398,0.8947109483803716,0.7534167447645382,0.6819872403150288,0.27445198185010267,0.15552401927287363,0.5372618748754809,0.3010760096450365,0.12091061219314496,0.30231401598335783,0.6582562810251489,0.747425258507119,0.3844873953652653,0.6087229648423199,0.6032995892244372,0.5797372471740504,0.3410608922237914,0.40324470337653834,0.36702977123329095,0.3829580716824843,0.26961410051743945,0.4266650447440543,0.0509335685092912,0.6444984865094983,0.7524550401621876,0.7624479791828547,0.7841584647638425,0.2632732683070578,0.339283465983673,0.8160661746188287,0.34673604023664534,0.5591045619385566,0.40332760539417817,0.31609904475469164,0.5535956874903498,0.42454532388069205,0.3624533565117585,0.43538404447595763,0.10123753203437431,0.29761903081382646,0.8220086338025393,0.6508331136724455,0.8385638475446189,0.8476536261487243,0.7891227379336839,0.04176887592401074,0.06857261340140487,0.5415529242251212,0.7638159954548377,0.5688622319440749,0.8900261858748948,0.7154095536246088],[0.836783212019437,0.6960000619705227,0.8965081998925145,0.85048703004411,0.055916000485575684,0.7776438836091781,0.6579078055959539,0.8675990473643896,0.31457422650306704,0.32892227625244524,0.3847905317018948,0.36498100983357123,0.8792591211607047,0.8499554425434217,0.6630599684939396,0.03572201195293241,0.5897786623298544,0.36718501926252056,0.5147473955492544,0.7117518361198438,0,0.04746102837091281,0.4626987206789198,0.42382270224488416,0.39436350592363595,0.44298543259121914,0.8337237783775614,0.8979335666380727,0.36830947399105307,0.7143915582265064,0.7774453448735618,0.8383406444122009,0.8100400399393171,0.44318309672662304,0.9414132910756697,0.844352219216296,0.744762071955889,0.9299156098047663,0.7313054563236513,0.4166481338863867,0.7677148637946678,0.7523388443738563,0.8827484704632087,0.8433364692669397,0.9258680177152729,0.8806674089082906,0.8182781741615879,0.4120497718677025,0.6517377840962774,0.03485766440657896,0.9113313660561991,0.6742661308235346,0.9126556298708329,0.37076231206012594,0.8942513920308146,0.878472030926748,0.8753786636497859,0.9240479415419451,0.45211541275976697,0.8621024864512883,0.7618747353965624,0.9379773517866635,0.10806327040239903,0.10048680121019826,0.1351130357729859,0.8820754811399799,0.49205661288297003,0.18387911399461088,0.3639386639974353,0.41726496068482954,0.9231770987147864,0.8071424303933912,0.8956691120856406,0.9289168607874929,0.3488611570904478,0.9241198355105307,0.7947928051826824,0.4127970846070209,0.21535053763389717,0.9117064476776345,0.23914896235490923,0.26813465405795855,0.7034211562007031,0.7478729041290292,0.7606080684926597,0.4097834204516124,0.7242628901306335,0.8925827666509377,0.3094074825663834,0.6320767233705504],[0.8791535351991806,0.7131446364262914,0.9298391684210205,0.8940311294541678,0.02908667178090853,0.8248948560239704,0.6724426152309633,0.9013961711951134,0.2927561759495721,0.3086371371032836,0.43328941990747877,0.3453539298257436,0.9093810916470656,0.8910586450106495,0.6804539841848527,0.02011899923092883,0.6099181390116464,0.41489863377959146,0.5570642405835422,0.7600648894500108,0.04746102837091281,0,0.4471754437427374,0.4056508727588674,0.3749187074623512,0.49168439036936484,0.8501296482870673,0.9373046861013855,0.3495210553199986,0.7368045140182159,0.8256545037911002,0.8781304946744856,0.8579283260091792,0.49186444499851734,0.9731705195192573,0.8907238178172682,0.7601654458496276,0.9633507170598704,0.7502598983243528,0.40133301582631264,0.7850642339344995,0.7740729863243717,0.9271907950577397,0.890487393540986,0.9609820763732333,0.9241792175659337,0.8658176030870287,0.460900961036469,0.6720794907308076,0.01866046193091719,0.9525687736097965,0.6986723919678395,0.9440985746006587,0.3945301998791589,0.9366822098869633,0.9181738239191737,0.9164161840766191,0.9656707912786108,0.5010806038071057,0.9004617594860864,0.8103407830867528,0.968083800329831,0.09557503429433212,0.08158449078566747,0.11228540914244886,0.9268638114985494,0.5328201189518974,0.15832740518512448,0.41200659031126413,0.4426460095711732,0.9639905159653245,0.8487021059158579,0.9291091113942244,0.9690397470650062,0.39756476637362115,0.9636730854609694,0.8423185662713267,0.46098204127952674,0.19291466704324609,0.9405808641420338,0.21577285091676876,0.2463625741860238,0.7155131693486783,0.7959020023145368,0.8082743604172847,0.4369480522926952,0.739167061475458,0.9251710979902283,0.2840259898494886,0.647395709541239],[0.8864355358139197,0.4520915447121486,0.8014366940566447,0.9202856357476538,0.4178679723212124,0.9434173697459524,0.3970268295312174,0.7826591562394094,0.1586515843571286,0.14059161753842184,0.6646541570004681,0.10475612676125928,0.7459092221763576,0.8757315832183263,0.4296212938250846,0.46627171068209405,0.4069666699820295,0.6274511381862173,0.6284423854736062,0.9238147889236842,0.4626987206789198,0.4471754437427374,0,0.045905578409800335,0.07752764261113118,0.7183722859736821,0.5583937018635466,0.8891451549409957,0.09888068115082937,0.5214849778426571,0.9771237269610228,0.8442065296348492,0.9933137724509302,0.7175791547570564,0.8203726389046007,0.9775642529182417,0.47366542196069594,0.8319367390541188,0.49835160150602525,0.044522842829871886,0.5117127726534778,0.544365944378327,0.9667647406450012,0.9984264687097176,0.8509990434584024,0.94609656628749,0.9884095390184646,0.703711986579107,0.4519655708761675,0.4642283697604092,0.9315749150422904,0.512647996631006,0.7912190392331875,0.34342133718510504,0.9376523519540759,0.8774394518292998,0.896678125538347,0.9494835446045485,0.7474875883078568,0.842417305826273,0.9752554293400059,0.7968464358075324,0.35396247114202556,0.36499613203363734,0.333432282795336,0.9735552580446319,0.5894629540944988,0.2901440280083405,0.6349349945557967,0.37213711971255575,0.9348100957664177,0.8467516421804228,0.8021433398782738,0.9284235544392091,0.6473045674268703,0.9150013679155903,0.967157878217839,0.6739955816957705,0.2542885948274436,0.7589928986278919,0.23338255592635254,0.20217916178546688,0.408530017845359,0.943690391604376,0.9417641631325548,0.38687988765327086,0.45216593448437065,0.7883689013172117,0.17682758171992433,0.38605633858685606],[0.897349737391832,0.48520390181042095,0.8255525021200949,0.9296063836302494,0.3768932372045224,0.9432822431032066,0.43058070306870755,0.8055377895661109,0.1134888680787931,0.09612182673490373,0.6481334767982595,0.05941650557882158,0.7730220170602212,0.8888938356993956,0.4609588335120284,0.4252655688982504,0.43147206883483097,0.6118853604441721,0.6277455907844052,0.9186640167335147,0.42382270224488416,0.4056508727588674,0.045905578409800335,0,0.03065397806687935,0.7034859137338622,0.5965705454720059,0.9059034499171361,0.05463375992078239,0.5507149988129154,0.9738699530765108,0.8589336054158043,0.9919331102058256,0.7027771798526886,0.8472119420747968,0.9811469852703983,0.5101294120169168,0.8567031129970163,0.5313344725697492,0.024752108510236827,0.5473286392677822,0.575673593765992,0.9751989366116701,1,0.8737589379043641,0.9561599279593096,0.9883326428516237,0.6868813469052597,0.48010506911778383,0.42325978574548845,0.9459644188683636,0.5382482664320929,0.8177561957025007,0.3429916923999769,0.949815551213056,0.8932880959543325,0.9105511657345756,0.9635594570905726,0.7311112500848271,0.8596615957878623,0.97055399851133,0.8253264811007228,0.3144006925608971,0.32439609807624065,0.29187523744645893,0.9813144981052537,0.5892344971607818,0.24704558320950093,0.6185235564463648,0.376809281588016,0.9500852597718573,0.858134025912157,0.8261178297142482,0.944819990335271,0.6285190156011323,0.9320936542548285,0.9666186995901389,0.6595607189055087,0.2115307498337172,0.7881318665289901,0.18968791271289498,0.15851721793145615,0.44617988320260277,0.9404614523533703,0.9400272131438577,0.389846830594124,0.4883140291722546,0.8132066527653966,0.13013348443254003,0.41750068223824416],[0.8984232738493901,0.5031876046160537,0.836105341889027,0.9295308733612888,0.3464500629835887,0.9367783750660731,0.449098083319899,0.8152248884899996,0.0816593195540263,0.06479340583098728,0.6315086293995238,0.02803527725806442,0.7858596905237162,0.8915429373986058,0.4777217977871248,0.39475354205094154,0.4434781117154114,0.5959624963918381,0.6215315290973129,0.9088779721307206,0.39436350592363595,0.3749187074623512,0.07752764261113118,0.03065397806687935,0,0.6877784854595952,0.6181908584065237,0.9110525923749085,0.024807334284697995,0.5656173850024367,0.9652567231749505,0.862725800589334,0.9845360425229808,0.6871250541507535,0.8597329460101015,0.9770866562772478,0.5305814285433076,0.8676840360535343,0.5490773742910556,0.04186511093268935,0.5670324778621609,0.5920413877330449,0.9744500302194005,0.994563456370632,0.8832527275327554,0.9565587257383802,0.9818073799244403,0.6699734051876496,0.4944662383291823,0.3927672900667263,0.949387924918188,0.5505574488523234,0.8300970664432411,0.3386219992078173,0.9516785519186756,0.8978139125268013,0.9136636742870244,0.9667392543339699,0.7144033427984602,0.8652261472106533,0.9609928992720735,0.8390991399287029,0.28479052208118655,0.2942205831528026,0.2612833329152769,0.980094550810228,0.5834648356714962,0.21580568827156646,0.6020422137603832,0.3755665044923939,0.954125432498783,0.8595959140707273,0.8365668051148054,0.9496582351805588,0.6105063693712128,0.9374418834841455,0.959813717217779,0.6442402712787263,0.18053415930655237,0.8024523859259742,0.15829742186245963,0.1272449477148247,0.46773228493616165,0.9319090232212407,0.9324624680855785,0.3873339659984647,0.5085822105779135,0.8243062159523799,0.09797615757779715,0.4345337566007847],[0.46903495726041117,0.6465124625844932,0.636902585590087,0.46576645248564785,0.48907357663584167,0.34614268515763286,0.6421662331184955,0.606132144385231,0.6398193780251987,0.6433149065981376,0.0584865481819474,0.6666145534681944,0.6590528763599046,0.49810296740897,0.6193420653346172,0.4785566881110543,0.5411857165371886,0.09033452669341492,0.21789193120999123,0.2691443627524358,0.44298543259121914,0.49168439036936484,0.7183722859736821,0.7034859137338622,0.6877784854595952,0,0.7641099027724222,0.5641733992808478,0.6648967789563823,0.6083230538057802,0.335400471467239,0.505094740986151,0.37076253238507734,0,0.6947830776333936,0.4222976282500389,0.7010885117193675,0.6651892991616748,0.6562620685661482,0.6823054191749441,0.7008399731353059,0.6449146465315719,0.48423263138863065,0.4117407147190937,0.6417491512013351,0.4944766332177372,0.3826179848995036,0.03287131478027196,0.5824582434881881,0.47823742426094007,0.5526571246514108,0.5572918210747713,0.6730093974594106,0.39715584890926303,0.5213639793368015,0.542292736755138,0.5221321582211451,0.5595612960750183,0.03574842486297173,0.5448401252075065,0.3180468603878811,0.7104267083552354,0.4930160005168965,0.5012165764982158,0.5260288870501012,0.47908295128555706,0.23525726923832596,0.56257054651993,0.08574256559710082,0.3978758738878067,0.5690334577102597,0.45332805988301234,0.6348797593671235,0.583056064643728,0.09259368882894867,0.5857933882798605,0.35962803475185595,0.04318018035268063,0.5736908236642364,0.7011611551178677,0.5927646656515,0.6066722307698018,0.6990375222579196,0.30771379683285477,0.32433306703686376,0.3782720461082437,0.6895723207450526,0.6421854563650751,0.6514395249836737,0.616018335746141],[0.5851998740433855,0.1364415292949258,0.36033811708382435,0.6305705585403799,0.8215033016034498,0.7607676448685553,0.17786288012792925,0.36120232385884493,0.6674684587683629,0.6511666952528351,0.7452627822743213,0.6311575714439512,0.28093638378288954,0.5500210514426391,0.16948643060275248,0.8593641034302296,0.24763540796532896,0.7110115929858544,0.5529881247259523,0.8044570755707915,0.8337237783775614,0.8501296482870673,0.5583937018635466,0.5965705454720059,0.6181908584065237,0.7641099027724222,0,0.5175336641757832,0.6235287711954374,0.15495565334450764,0.8245005277344637,0.5071721247816336,0.8154993850101532,0.7626285017812199,0.3436348387229187,0.7441729698734363,0.08961741750618228,0.3770033329765494,0.10886226626274921,0.5754474755898612,0.06610549950807174,0.1217499156070503,0.6782427751098699,0.7848160102904115,0.41596430283333685,0.6423347082557869,0.796129676787054,0.7752517942420254,0.1898839089618355,0.8573391321226465,0.5796215417264708,0.2056868319722433,0.32324069003974554,0.4675812615307442,0.6107553478580882,0.5191407801726219,0.5578283687883644,0.5979113603670694,0.8012753345618268,0.47528277466882585,0.8400843612421077,0.30545143423108384,0.761116567212351,0.7783866466030265,0.7642437921895744,0.6917049524812094,0.528395772906588,0.7464353748578607,0.7246312897570336,0.42847592463325096,0.5718671592061002,0.5495588345392354,0.3625991960752578,0.5535292548394829,0.7577502223330992,0.5344216260545559,0.7844432743877063,0.7290762814661401,0.7178391114790168,0.26661208815518683,0.7102776917332988,0.6881510142965411,0.14893965936709827,0.7974832742483903,0.7783651160904401,0.44236205686108226,0.11162530511751409,0.34141902369745897,0.6932614637179397,0.20149371987277032],[0.11405959638004484,0.5031211074283245,0.16801101960568599,0.1498415552351205,0.9194920790837248,0.33517364002603056,0.5466686253057486,0.15703403731276622,0.9150876247247559,0.9066090140230957,0.5895008432286479,0.9072456937916162,0.24485366065609257,0.07129063182012732,0.5047920259320293,0.9342893437620465,0.4899083524483979,0.5786797591466594,0.3878910400687101,0.42317867755838856,0.8979335666380727,0.9373046861013855,0.8891451549409957,0.9059034499171361,0.9110525923749085,0.5641733992808478,0.5175336641757832,0,0.9012556894901265,0.4164591153675938,0.40566111764398377,0.059243222509019935,0.37715622505280694,0.5628233148380674,0.2157780275780045,0.27789749808046654,0.5276237323824855,0.17078745328659134,0.4703470457572257,0.8796550090299052,0.4955023878076554,0.4210939027980995,0.18389345986111377,0.3243762156703957,0.12610942201143266,0.14484342491046004,0.3506792816647057,0.5943188051129088,0.4650679159695347,0.9329817302914041,0.062226079626940024,0.3974441029413798,0.21685022787457042,0.5898799775204053,0.103015388515457,0.020387952110757345,0.05676319956104004,0.07947699011957957,0.5901032535235297,0.04595100901649668,0.43215589996583675,0.2544961467892507,0.8858711326549981,0.9014507927412997,0.907973059987598,0.19935203910081897,0.40515469450118097,0.9190901184077868,0.5897169096080219,0.5435850948041877,0.0528348900090635,0.11182116590396857,0.16518723084333697,0.038286359516757504,0.623286007973804,0.025392117418781484,0.350879940651778,0.558178105130798,0.9078955859873105,0.2773467634502831,0.9145385210045132,0.9087486860011014,0.5792046175293936,0.39327752285093737,0.3647123509005389,0.5375716800468919,0.5357900145025098,0.18640800979885644,0.9383375731507426,0.5401488643381636],[0.8855977520490953,0.5051063055368322,0.8307442802814674,0.9158633283610091,0.32084516458202167,0.9188435511820582,0.45169924683919305,0.8091594443063379,0.058251798551016414,0.040253945429365216,0.6082296650566889,0.006123509848612322,0.7825250189477132,0.87987306774383,0.47855239230153435,0.3691975804192208,0.44013721963386726,0.5730381691042763,0.6040508302572267,0.8889991089353609,0.36830947399105307,0.3495210553199986,0.09888068115082937,0.05463375992078239,0.024807334284697995,0.6648967789563823,0.6235287711954374,0.9012556894901265,0,0.5644923031048247,0.9460315707583417,0.8519353808919204,0.9660284896584787,0.6642701708819232,0.8560406608158309,0.9606837596011734,0.5348785366143498,0.8626545347537249,0.5506482832503249,0.056456044928426104,0.5704909863185514,0.59221350751431,0.9602805806094081,0.9772662492259092,0.8769580554786296,0.9432078259073052,0.9638351578753294,0.6465428396567582,0.4930353346661994,0.3671982396610073,0.9382489740191627,0.5471578159156929,0.8262777016403039,0.3230948919880765,0.9393848189265864,0.887549665792338,0.9023199195520385,0.9554055503415572,0.691041131921397,0.8557913370350348,0.9412180806158879,0.8365353879177688,0.25877123606818914,0.268452242972959,0.235770388072433,0.9655954191206891,0.5663229166169355,0.19091381576434138,0.5788492999199816,0.3620610281554396,0.943447180327763,0.8470833826356307,0.831117525772364,0.9395913915123694,0.5866203892379604,0.9277774262400086,0.9416803459000201,0.6215726586289283,0.15536725919524386,0.8004210016234167,0.13363788715816846,0.10243362479048852,0.4733303341455514,0.912736263570828,0.9138800834159149,0.3728770913092037,0.5127459825590677,0.8194220556464362,0.07803057838771445,0.43576597786806714],[0.4619711905792238,0.08529835455034719,0.28911418151838936,0.5060029110575366,0.7099714949611162,0.6177918389360483,0.1336878120124002,0.2770930263252795,0.5978873157788558,0.5840112409089779,0.5912923223807959,0.5717474738387816,0.22473364006364405,0.43288510621872833,0.09364243357069746,0.7433460221270076,0.12881864144731534,0.5579707190120622,0.39650753710800696,0.6543657059523388,0.7143915582265064,0.7368045140182159,0.5214849778426571,0.5507149988129154,0.5656173850024367,0.6083230538057802,0.15495565334450764,0.4164591153675938,0.5644923031048247,0,0.6786922621415054,0.3917305363867954,0.6731138108249071,0.6068336623931848,0.2992115487745217,0.609966047625684,0.11645956014789786,0.31633915629250214,0.05766797783135093,0.5262280205881605,0.09756030306721794,0.03783262327466447,0.5551804522832916,0.6478210747785066,0.3433279417904398,0.5223111424306554,0.6556168850566714,0.6203317479842779,0.07006052153379011,0.7414305626276464,0.4733938472976085,0.04951326964207067,0.2709158108006962,0.34210760447730393,0.4968161779755924,0.41255707253491286,0.44570275709757246,0.4923096436656448,0.6454208360542137,0.369994379817391,0.6923989900068863,0.273881976889231,0.6545256899765254,0.6719850776090436,0.6631758521739626,0.5673026688623737,0.3721760030960316,0.6535023942990086,0.5716795265590828,0.29686965652183994,0.4696537084301298,0.4233787439917744,0.29041736857968975,0.4555463984430232,0.6054829624172843,0.43810687887266125,0.6420804678718484,0.5740569804486264,0.6294321126493776,0.23603644633263288,0.626408858137195,0.6091837092179062,0.16124653914728296,0.6502796414015662,0.6329915152128557,0.3073131314936679,0.11971809675741116,0.27343107998137683,0.6237440235003727,0.135833794123834],[0.29067429292640246,0.7491253287915391,0.5518024464759015,0.2562072447045443,0.8205389164508871,0.06938692802884641,0.7694354275899108,0.5279336663294115,0.9336398003274796,0.9331033514602388,0.3915618503591083,0.9494200867362906,0.6105846897362422,0.33504289901805273,0.7333939502232495,0.8136394498243166,0.6758093113347055,0.4099476836581292,0.3485968629403818,0.06479340583098728,0.7774453448735618,0.8256545037911002,0.9771237269610228,0.9738699530765108,0.9652567231749505,0.335400471467239,0.8245005277344637,0.40566111764398377,0.9460315707583417,0.6786922621415054,0,0.3685634904286892,0.04103192116048383,0.33496824665930286,0.6091894653636021,0.13960905074772728,0.7945435965393813,0.5666866240838144,0.7373762106706143,0.949507029103242,0.7771302863934976,0.7036391406749386,0.23905078976242067,0.10186853471428585,0.5265219977077299,0.2711200746853652,0.06561865036301309,0.3686287084087077,0.6889830390260477,0.8131994039738781,0.3594099685797252,0.6354204161508404,0.6003580644311051,0.6322311108361048,0.3138298797413815,0.3874119140180381,0.34770035695024365,0.3548266847915414,0.33573626336253287,0.4164052866327629,0.02846377463362555,0.6414647926950012,0.816348283116456,0.8266507528905112,0.8477605481608859,0.22579226079391973,0.3878362713726957,0.8787610558276748,0.41215107782289506,0.6084182149118184,0.37820388647473946,0.3069866641602775,0.5489956461530551,0.40098303962752696,0.4285505847044336,0.4141227647107202,0.054839722640732634,0.36314315702479333,0.8837452611448479,0.6518005619141314,0.8997958987329377,0.9079752631264226,0.8204775641801566,0.03190399099233883,0.04475127271448874,0.5915834679793942,0.792150472139707,0.5659809045460531,0.9497699764627882,0.7499434219250171],[0.08177417964575857,0.4770645109853002,0.18352909749044136,0.12637904190436053,0.8607263368695747,0.29767073174832803,0.5168017151704764,0.16315311877385547,0.8635299813060388,0.8556680422938333,0.529295225878435,0.8577291909459757,0.2508864452323124,0.04140907557992587,0.47510373318683186,0.874804625530523,0.4519101685138707,0.5180503765635732,0.32722765057121994,0.3787027209768634,0.8383406444122009,0.8781304946744856,0.8442065296348492,0.8589336054158043,0.862725800589334,0.505094740986151,0.5071721247816336,0.059243222509019935,0.8519353808919204,0.3917305363867954,0.3685634904286892,0,0.34449470683687017,0.5037259463986304,0.2394836947066077,0.2521173630264795,0.5069071542824907,0.1965989718611555,0.4483387655471299,0.8326512612507099,0.4777584720133508,0.4017180543646269,0.17109047416880183,0.2976205976400911,0.1572068688535674,0.13393370026963963,0.3194593384335109,0.5348292517552934,0.43335150574225084,0.8735206082295273,0.08595311056160843,0.3664214997614346,0.233024779881246,0.5366553813480235,0.10364118410788735,0.03865283340486826,0.053110940904912626,0.10425818289123914,0.5317794606851675,0.04653964992075027,0.39321260726716467,0.27356695057811203,0.8282555464162338,0.8436578072156816,0.8509524882486523,0.1854173434508212,0.34511971837618827,0.8632749171954788,0.5291561358348491,0.4914675011820095,0.09002992962851993,0.06107602169078745,0.180662836286902,0.08984199045469013,0.5628517392585365,0.08446152250381977,0.31609166631563135,0.4981194780713565,0.8530528050568758,0.28890591004741467,0.8603906027049739,0.8555917601708519,0.5537641927541843,0.35247856932587474,0.3251834801086091,0.4843665662960218,0.512782802211916,0.19928477088857782,0.8863563540926912,0.5076602307499968],[0.2638722403207375,0.7464402470884524,0.5292267893009609,0.2260504184987287,0.8517984013212965,0.05394099073083642,0.7695895302085105,0.5067757698812906,0.9559151845319334,0.9546611167338644,0.4254312584058954,0.9696826875114612,0.5914149399067875,0.30844818307139094,0.7323999424333237,0.8465089143761956,0.6784079639012279,0.44152886369074873,0.36334081541565105,0.10297323655848094,0.8100400399393171,0.8579283260091792,0.9933137724509302,0.9919331102058256,0.9845360425229808,0.37076253238507734,0.8154993850101532,0.37715622505280694,0.9660284896584787,0.6731138108249071,0.04103192116048383,0.34449470683687017,0,0.3702327462067362,0.5854643178045141,0.10267004878385595,0.7900612116241412,0.5421375740801999,0.7321584331288016,0.9671976392267246,0.7707253528834871,0.6961572843243985,0.20362955011135214,0.060935676499735573,0.5006832679241424,0.2378789761603843,0.026067408469072493,0.4044853018588585,0.687779505430103,0.8460007695317513,0.3274906261251852,0.6316774233939012,0.5783781343988363,0.6485257150100492,0.28135025885124504,0.3599849843766695,0.3188739855704227,0.3214563327720949,0.3733864826312568,0.39170729420128264,0.07027510900001133,0.6192301931330567,0.8452173056813019,0.8560350448591647,0.8761209045611317,0.18959039101905328,0.40236638706639366,0.9057117065923896,0.44461724600779257,0.6219883714933835,0.3460828220101964,0.28451999759747326,0.5263807564071955,0.36943611133261184,0.46290891094087333,0.3836169909552936,0.029545935019554444,0.3960158049479048,0.9093617955127546,0.6317881515015521,0.924730955632307,0.9317583691764912,0.8192155767664879,0.061588817301193456,0.05072117954816393,0.6058542620612745,0.7888527205131769,0.5442285481129555,0.9728025747098686,0.7512293887329787],[0.4677877170862824,0.6450784187166003,0.6354137932325401,0.46461102838764723,0.4891590763300345,0.3454199981175029,0.6407830555523366,0.6046412360194442,0.6393108850993883,0.6427655245069434,0.05834972273788025,0.6660036012699213,0.6575323347171843,0.49679680239964763,0.6179245713207797,0.4787904588722265,0.5397930213518812,0.0897330472171627,0.21636139146887948,0.26872757792984436,0.44318309672662304,0.49186444499851734,0.7175791547570564,0.7027771798526886,0.6871250541507535,0,0.7626285017812199,0.5628233148380674,0.6642701708819232,0.6068336623931848,0.33496824665930286,0.5037259463986304,0.3702327462067362,0,0.6932867613104794,0.42145574579278366,0.6996477670392681,0.6637109681283658,0.6547943382105302,0.6815664765927142,0.6993719687634627,0.6434174593859359,0.48317925695146197,0.4110420470967016,0.640297162015752,0.4933408844597807,0.38199459526756285,0.033712568399283,0.5810177834811128,0.47846451503453,0.5513963347291847,0.5558031391427579,0.6715040210529277,0.3960798502788966,0.5201609861495249,0.5409443590719922,0.5208394183358233,0.5583286129589285,0.03719759933002252,0.5434378473543756,0.31772549665260685,0.708914848592312,0.4928951449545624,0.5011429185051948,0.525883159043773,0.47806371274058185,0.2337500477479333,0.5623345188792653,0.0853523192740232,0.3966723624525389,0.5677583009480965,0.45201334481059213,0.6333921296225751,0.5817525009589563,0.09279763777409832,0.584463919799877,0.3589863444797543,0.0422532884860172,0.5733643851734996,0.6996383415434413,0.5924013611472959,0.6062401229366201,0.6976528875283747,0.3071972751143543,0.32370604798970753,0.37706811847329874,0.6881462569852633,0.6406870156144983,0.6509831890213639,0.6146449239109602],[0.3208996829243113,0.3791623666692491,0.05819296697106477,0.36271502785911314,0.9502022328663525,0.5383829307021624,0.43241053649787675,0.08773385092502162,0.8833454295288724,0.8711632721501609,0.7039252302829974,0.8629961668281728,0.07302772718809654,0.27670162653758557,0.39402250130639016,0.9749961645084151,0.4147242477394646,0.6825938529082107,0.4839834523212562,0.6151904756006243,0.9414132910756697,0.9731705195192573,0.8203726389046007,0.8472119420747968,0.8597329460101015,0.6947830776333936,0.3436348387229187,0.2157780275780045,0.8560406608158309,0.2992115487745217,0.6091894653636021,0.2394836947066077,0.5854643178045141,0.6932867613104794,0,0.49094790510967423,0.38320320853510775,0.04349357945373811,0.33591132648481414,0.8220569531837332,0.3445190883047433,0.28427439195241977,0.40069097081387206,0.5370617515976802,0.08884277205686864,0.3615711833731489,0.5602260622219795,0.7192971421581429,0.36700179166194263,0.9733440546825795,0.27785530792502344,0.30765013155734694,0.028455960270191562,0.5858927377444889,0.3203213186283398,0.22811380497692355,0.27137936519298345,0.2927629449358419,0.7268736818860292,0.1923459139591517,0.6331910971027631,0.040256469268620886,0.9040836975151113,0.9210903596788608,0.9194019086620958,0.41606513617771146,0.4839486965566245,0.9190361488854482,0.695576930958002,0.5360523669023934,0.2638722403207374,0.30067879667804087,0.0606981144894234,0.24075673175228565,0.7314130439979942,0.2214927504233668,0.5570948668937838,0.6764742705390989,0.900083169649441,0.07569881806687521,0.9010807576537024,0.8881618425832181,0.4464106694867077,0.5917942533133044,0.5652102144071325,0.5378758981027921,0.3981894069646546,0.051256654409573,0.9086630000099658,0.43657501306171004],[0.1690297586372824,0.6885145796820605,0.4367521480309324,0.12696255423800648,0.881217457828517,0.08212285653177556,0.7175445432524146,0.41670137101077454,0.9570050355736925,0.9537378855852148,0.47027244289949705,0.9650397422479169,0.5037444996781939,0.21277556435306966,0.6782631845794554,0.881456364180212,0.632969354040065,0.47852544498315724,0.3569772549798403,0.1830462252202015,0.844352219216296,0.8907238178172682,0.9775642529182417,0.9811469852703983,0.9770866562772478,0.4222976282500389,0.7441729698734363,0.27789749808046654,0.9606837596011734,0.609966047625684,0.13960905074772728,0.2521173630264795,0.10267004878385595,0.42145574579278366,0.49094790510967423,0,0.7279452608564703,0.44675228699128666,0.6690866951868862,0.9556086285656767,0.7048654185037837,0.6288657248398841,0.09951863193094992,0.044953379135175144,0.4038482495109477,0.1348805270639288,0.07507420626952334,0.45669314844983633,0.6337389276704832,0.8807154907826001,0.2250146777808177,0.5729496510576187,0.4864169281029976,0.6370459707744177,0.17867102292183598,0.262283152867785,0.21983294486454408,0.2179592625955782,0.4329912628422028,0.2975171694978958,0.16933788549173318,0.5266304775091699,0.8669457159273705,0.8793008012468368,0.8959713999290293,0.08539128793926247,0.3934357747867622,0.9209508955297696,0.48433827734111934,0.6039718776294417,0.24335688691540408,0.19682435468358175,0.43387112705586317,0.2670772240645427,0.5084146997799618,0.2821299759705676,0.08411470486690223,0.43853491389893295,0.9205454787622551,0.5424629337699999,0.9337638416462836,0.9373651437819561,0.7636107444893854,0.14156317961454237,0.11296811374865831,0.5899493207645883,0.7292109934367431,0.4528741960774413,0.9759184977911959,0.7018891755152156],[0.5789825392313722,0.05371153098193675,0.38636145098403574,0.6232977667347033,0.7313508020810212,0.7346610110788645,0.08679690492789091,0.37991930697722504,0.577573499087146,0.5615077886404066,0.6773230924929325,0.542479648984462,0.3123421625880967,0.5486413505956065,0.08486488078277654,0.769778241168661,0.1663943085170819,0.6415542843474541,0.4979475199780784,0.7679091515504597,0.744762071955889,0.7601654458496276,0.47366542196069594,0.5101294120169168,0.5305814285433076,0.7010885117193675,0.08961741750618228,0.5276237323824855,0.5348785366143498,0.11645956014789786,0.7945435965393813,0.5069071542824907,0.7900612116241412,0.6996477670392681,0.38320320853510775,0.7279452608564703,0,0.40911529530317586,0.057541952691369906,0.4882350811590392,0.03865283340486826,0.10508240102613864,0.6723414191632222,0.7656442872348018,0.4423168346162888,0.6389139730312263,0.7729786874339546,0.7093503321050884,0.11709977942631813,0.7677392362265447,0.5865088279589815,0.15777602971046417,0.35823083074619966,0.3819583269087875,0.6120733025841333,0.5254335254448717,0.5603094937425577,0.60533277630653,0.7383661304582303,0.4821609947460945,0.8073641017941527,0.35000235781690564,0.6705313027716541,0.687764426712325,0.6732817311525243,0.6846648417478373,0.46936287421238493,0.6552870800667622,0.6549442933823663,0.34564057373462037,0.5815283986132804,0.5407367135122128,0.388145853953622,0.5659476397971571,0.6868059878261592,0.5478103523109124,0.7590707497967841,0.6636877869899933,0.6267371297630069,0.30999106323685394,0.6193269665010915,0.5974558349251023,0.06561865036301309,0.7655663852443367,0.7490868641566897,0.36084075276939787,0.020704294253821944,0.36872999510990156,0.6034337773904841,0.11126685004426572],[0.2770930263252795,0.3997138284047267,0.032043886450430006,0.31837856047376784,0.9413367876093478,0.49579935346704346,0.451301951288921,0.061309731064150295,0.8872024940482937,0.8757527410548617,0.6773568548339234,0.869436154640242,0.09568888157915116,0.23271338486257254,0.41146853949900764,0.964200452417049,0.42383272984566295,0.6578412730423279,0.45862779150831773,0.574601996271066,0.9299156098047663,0.9633507170598704,0.8319367390541188,0.8567031129970163,0.8676840360535343,0.6651892991616748,0.3770033329765494,0.17078745328659134,0.8626545347537249,0.31633915629250214,0.5666866240838144,0.1965989718611555,0.5421375740801999,0.6637109681283658,0.04349357945373811,0.44675228699128666,0.40911529530317586,0,0.35846614702423946,0.8311836666295093,0.371655979355194,0.30639537278071294,0.355833112363852,0.4929638703675221,0.04398538173002328,0.316714945937317,0.516666055601924,0.6908705629844365,0.38075518817702264,0.9626115187121355,0.23284691195703464,0.3177859421247543,0.052600092370684026,0.5816415958302299,0.2753337184713592,0.18346323335516984,0.2266600553204006,0.247851363536622,0.6963309268152013,0.1489393478658198,0.5911435226670884,0.08367300924256284,0.8975702296080722,0.9143631707229568,0.9143603560432993,0.3712265935955857,0.46175850087135445,0.9163777978223416,0.6705493659980672,0.531931244077902,0.21898456836842178,0.2584709368445974,0.032719747497319436,0.1960121764457532,0.7061864880916675,0.17667200491021787,0.5140696744961332,0.6490159639000197,0.8989582608556708,0.11356016026421771,0.9011469646955732,0.8896712483314663,0.47008762336287896,0.5500801954029444,0.523115815746585,0.5321201166315257,0.42252217955425025,0.04203865892904447,0.912197801706279,0.45289730100759057],[0.5199794664675258,0.04473000031700019,0.33387441770524945,0.5642520236955669,0.7223465337507664,0.6768108588557914,0.09987747775828619,0.3253362334531725,0.5888616172167738,0.5738207769380415,0.6358603916206965,0.5581147918327317,0.2630035077007514,0.4899250430390698,0.07166299799751244,0.7583649293045766,0.14058007413927232,0.6012403378189153,0.44835098160611503,0.7121331962578398,0.7313054563236513,0.7502598983243528,0.49835160150602525,0.5313344725697492,0.5490773742910556,0.6562620685661482,0.10886226626274921,0.4703470457572257,0.5506482832503249,0.05766797783135093,0.7373762106706143,0.4483387655471299,0.7321584331288016,0.6547943382105302,0.33591132648481414,0.6690866951868862,0.057541952691369906,0.35846614702423946,0,0.5079938075374217,0.043048947143836135,0.05054146428830398,0.6133171588155657,0.7070166341394312,0.38938149274430267,0.5799989964106095,0.7147649693796979,0.6664388698460301,0.08031023829391758,0.7563818017287077,0.5286084732384426,0.10250122932928073,0.3094207853330864,0.3616218141761027,0.5535099800720629,0.4675800375605603,0.5019253560474614,0.5474711079819667,0.6935026640852581,0.42450987238430643,0.750750609771828,0.30564680936697697,0.6639977414844885,0.6814094812660634,0.669710779663713,0.6256120727861133,0.42180335665860164,0.6558131627060635,0.6148217583540508,0.32048471174902216,0.5240440369372587,0.48168081471495455,0.3354847637346196,0.508967729010409,0.6477291982590233,0.49106374337351155,0.7011356907593697,0.6203842054518369,0.6293893224629693,0.2660451328411753,0.6241493603576758,0.6045136378167776,0.11026511125576108,0.7087493473120747,0.6917578068861188,0.3335875701640371,0.06410003723934694,0.3168922234641672,0.6148414541901631,0.11339714171536017],[0.8711473740782636,0.4619619880992342,0.7999418265015258,0.9034937365687193,0.3719422341892048,0.9183106517472422,0.4075801922651616,0.7797647901075295,0.11558835224898578,0.0971051624209742,0.627523790953437,0.06332775939507705,0.747942326243535,0.8626216658812283,0.43715610304390734,0.42033784426719023,0.4060954248478667,0.5909008992229331,0.6027863504168686,0.8947109483803716,0.4166481338863867,0.40133301582631264,0.044522842829871886,0.024752108510236827,0.04186511093268935,0.6823054191749441,0.5754474755898612,0.8796550090299052,0.056456044928426104,0.5262280205881605,0.949507029103242,0.8326512612507099,0.9671976392267246,0.6815664765927142,0.8220569531837332,0.9556086285656767,0.4882350811590392,0.8311836666295093,0.5079938075374217,0,0.5250041829763332,0.551745265674007,0.9491523588105083,0.9747546547939411,0.8479595784941075,0.9300041713054679,0.9633586837676477,0.666409046752808,0.45541232474923643,0.4182897632875194,0.9196815519775374,0.5129828946342948,0.7925509042824178,0.31777834578152814,0.9235685816333145,0.8670178169072786,0.884270593044168,0.9372779007564522,0.7104867967009486,0.8334319206640038,0.9465086573693712,0.8005245777069587,0.30792228465205873,0.3190375315365227,0.287652199305129,0.9553225116755704,0.5641768999152935,0.2449103926254369,0.5978560368223093,0.3509517549853187,0.9238059245717983,0.8319099276344238,0.8004867518516059,0.9185602145634582,0.608791568764556,0.9058550626681876,0.9417230815690452,0.6382000830230412,0.20898097242756178,0.7634980198531361,0.18859128396339034,0.15750039877116626,0.42497718824872577,0.9160865231646224,0.9153504233574793,0.3641934413495059,0.46630226931270574,0.7877078870435765,0.13599748269445364,0.3937943296120896],[0.5519958855578487,0.07039690769602741,0.34994591920883367,0.5967824920189846,0.7567014016444082,0.715517745092207,0.1180344745641859,0.34504152255756515,0.6117095900815092,0.595989167863827,0.6803147950074689,0.5780577122979117,0.274579159416009,0.5199794664675258,0.10315651867985251,0.7938756334717636,0.18006861861396445,0.6455813655586702,0.49254162689683345,0.7534167447645382,0.7677148637946678,0.7850642339344995,0.5117127726534778,0.5473286392677822,0.5670324778621609,0.7008399731353059,0.06610549950807174,0.4955023878076554,0.5704909863185514,0.09756030306721794,0.7771302863934976,0.4777584720133508,0.7707253528834871,0.6993719687634627,0.3445190883047433,0.7048654185037837,0.03865283340486826,0.371655979355194,0.043048947143836135,0.5250041829763332,0,0.07490575910495224,0.645467202456442,0.7437548624438254,0.4060477024590579,0.6111441084417176,0.7526803554941173,0.7109852801225599,0.12247964647307437,0.7918654753437023,0.5554453896441582,0.14570420221720315,0.32011696961412295,0.4003642280393708,0.5827329934900782,0.49437182386603123,0.5304793269179598,0.574161489926458,0.7380794208024052,0.45078577437457573,0.7911835631538673,0.3106386112431031,0.6970928979475811,0.7144317068131412,0.7012967660500318,0.6582018083494077,0.46627754703379354,0.6851752439737566,0.6591451823575499,0.36088666807764347,0.5496708164195663,0.514531729720589,0.35183331376830185,0.5333045363161426,0.6919351363437038,0.5148649522346942,0.7396612594863962,0.6649425640295847,0.6575245116142191,0.27062348712111006,0.6510176677100009,0.6300219649157459,0.10564147916973492,0.7489707089779721,0.7313130674436137,0.3747259478482962,0.0583958873663772,0.3319846121985006,0.6376407314758982,0.13867610426496282],[0.4755769999559258,0.09369117740298863,0.2819079323450497,0.5203473824609521,0.7469854857491416,0.641097055541526,0.14809624303021365,0.27394608741884185,0.6278004652838675,0.6134074882963046,0.6290754390429156,0.5995770034684971,0.21107576188645988,0.4438133484315385,0.11327227624811884,0.7809439486337693,0.16372704322316603,0.5961194487380319,0.431366757756879,0.6819872403150288,0.7523388443738563,0.7740729863243717,0.544365944378327,0.575673593765992,0.5920413877330449,0.6449146465315719,0.1217499156070503,0.4210939027980995,0.59221350751431,0.03783262327466447,0.7036391406749386,0.4017180543646269,0.6961572843243985,0.6434174593859359,0.28427439195241977,0.6288657248398841,0.10508240102613864,0.30639537278071294,0.05054146428830398,0.551745265674007,0.07490575910495224,0,0.5690478337349667,0.6681057233218644,0.33751047725991057,0.5348156189734422,0.677663331804182,0.6576109873015114,0.10226442080119598,0.7790139858033752,0.4803034104672349,0.08737871098208959,0.2575272897701099,0.38018011786177025,0.5067858208349204,0.41921262789548397,0.4547039966600027,0.4990901622309593,0.681919759959754,0.3758141141588044,0.7184759473004928,0.254929663520783,0.6907998863995517,0.7082597438514967,0.6986629031364333,0.5817669652907006,0.4083484910427499,0.6877015243314897,0.6098491440120754,0.33549967960110716,0.47506587121236926,0.43809834963783895,0.28354547183704,0.4593504293805607,0.6438342801883862,0.441197428880228,0.6650809023473307,0.6112983198771652,0.6628254242440065,0.21564857403004759,0.6590159787327085,0.640870909301294,0.16228016446502758,0.6760365249345341,0.6576521588269679,0.3462792599366518,0.11539609599004595,0.2648504229963498,0.6537386125122262,0.15683171815302516],[0.09194044368925752,0.6380901717967511,0.349764640974655,0.04793328713717984,0.9146912902982243,0.1744934047161296,0.6730112562315613,0.33325210821159607,0.9628806134177331,0.9577052619973795,0.525264855610707,0.9652712676406064,0.42188890716748795,0.12836838269633838,0.6321451474178539,0.9199963210733534,0.5971674863341715,0.5267752674297829,0.3733281255675841,0.27445198185010267,0.8827484704632087,0.9271907950577397,0.9667647406450012,0.9751989366116701,0.9744500302194005,0.48423263138863065,0.6782427751098699,0.18389345986111377,0.9602805806094081,0.5551804522832916,0.23905078976242067,0.17109047416880183,0.20362955011135214,0.48317925695146197,0.40069097081387206,0.09951863193094992,0.6723414191632222,0.355833112363852,0.6133171588155657,0.9491523588105083,0.645467202456442,0.5690478337349667,0,0.14470598677758076,0.31149145222823543,0.03758895804485988,0.17605750663476344,0.5180151030371379,0.5885884497646026,0.9190512581248678,0.12629601558059678,0.5239637671889606,0.39941902307743343,0.6360774536868802,0.08035318072752717,0.17136585652245806,0.1280537175339637,0.11753655555339933,0.5007615658073765,0.2112531599043846,0.26825338651566155,0.4384079614586407,0.893474553697145,0.9071055619295447,0.9203892690673046,0.013967319499593971,0.4047857176459175,0.9407409143928335,0.534665285835771,0.597388397744301,0.14402329001277508,0.13043475562479354,0.346881362377609,0.16814732917994096,0.56280606016359,0.18443192271153466,0.18273800077629015,0.49275377755503047,0.936502342054814,0.45807158041148816,0.9475205511609708,0.9478069581254474,0.7145633973591277,0.2361252141481631,0.2064488407480494,0.5858791729446926,0.6762866208670826,0.36710555976615045,0.9835385120730737,0.6605228473946335],[0.2148217034465425,0.7247458519547814,0.4825097237234439,0.17334465301043653,0.8825173890632076,0.06442134200362414,0.7517805564441616,0.4619711905792238,0.9708848483647553,0.9684621243377484,0.46317342518107274,0.9813365663203092,0.5485741279305093,0.2588308312901322,0.7131659511072522,0.8802080284773047,0.6646559159582568,0.47512340055803054,0.37169280930316134,0.15552401927287363,0.8433364692669397,0.890487393540986,0.9984264687097176,1,0.994563456370632,0.4117407147190937,0.7848160102904115,0.3243762156703957,0.9772662492259092,0.6478210747785066,0.10186853471428585,0.2976205976400911,0.060935676499735573,0.4110420470967016,0.5370617515976802,0.044953379135175144,0.7656442872348018,0.4929638703675221,0.7070166341394312,0.9747546547939411,0.7437548624438254,0.6681057233218644,0.14470598677758076,0,0.4502050966517798,0.18100981105165623,0.03476092907761675,0.4460207231361727,0.6685217188418947,0.879574100842062,0.27119785334925783,0.6092315986981515,0.5321157250057754,0.6554797286921934,0.22484237005854768,0.3086611638045099,0.2662902607903718,0.2636482980562303,0.4185982422688767,0.3434453529388459,0.13179167537701483,0.5724634356271029,0.8716998770515767,0.8833868641804734,0.9016129897865446,0.12998646584856982,0.40956798726688226,0.9286730116945213,0.4797078489873275,0.6249626327498405,0.28943653853856216,0.24095204244218857,0.4796328466401018,0.3132604514551419,0.5011955990550442,0.32849339071183886,0.05294965103262565,0.4323327595005118,0.9300404488983598,0.5876839508067488,0.9442119639834214,0.9492931582942661,0.7991592478632702,0.11225977051828781,0.08789123816751435,0.6100348186706417,0.7660862541880902,0.4984359833079582,0.9889657693030903,0.7351355015998896],[0.23528057645632836,0.4286565851898724,0.054612892508810795,0.27535487950350895,0.9400085450787063,0.455609742209865,0.47847906471554535,0.06681212881959908,0.8987825702574838,0.888072276908969,0.6574459198365574,0.8835559594171057,0.13357718975944177,0.19070856839976796,0.43771358900823826,0.9608116209698463,0.44262413899978015,0.6401043379049084,0.44129799410941706,0.5372618748754809,0.9258680177152729,0.9609820763732333,0.8509990434584024,0.8737589379043641,0.8832527275327554,0.6417491512013351,0.41596430283333685,0.12610942201143266,0.8769580554786296,0.3433279417904398,0.5265219977077299,0.1572068688535674,0.5006832679241424,0.640297162015752,0.08884277205686864,0.4038482495109477,0.4423168346162888,0.04398538173002328,0.38938149274430267,0.8479595784941075,0.4060477024590579,0.33751047725991057,0.31149145222823543,0.4502050966517798,0,0.27240637346985647,0.47484513010471346,0.6687353890312904,0.404114560640116,0.9592922112302054,0.18757122192410702,0.33880959122414184,0.09544860879493673,0.5863700990159859,0.2305574163445011,0.14004309432572304,0.18288846036129192,0.20239039026809263,0.6716576867144344,0.10914383428549317,0.5516425159835786,0.12912832563626725,0.8987705439584673,0.9153027903041335,0.917021228912318,0.32693239422904885,0.44809825782127205,0.9214431174911184,0.6524476469630346,0.5371137255391615,0.1735053965423192,0.21976374779708271,0.05268380294920316,0.15049604583064533,0.6877307661522761,0.13116264562446167,0.47314357008241276,0.6281649324833772,0.9056015394918053,0.15726768440923178,0.9089693520870289,0.8989478505164393,0.5011500749924247,0.5111393911776227,0.4836437770059574,0.5356454730136115,0.4543854040255203,0.07312196603504396,0.923404204327257,0.4778576250708834],[0.06010476635286603,0.6061349212169006,0.3108018923472902,0.02866274566932771,0.9105085625932946,0.2037323330423545,0.6426054575163669,0.29470478959295116,0.9480389831638706,0.9421914444475409,0.5321189528542215,0.948409118511574,0.38342621255236015,0.09099543740275723,0.6014191601573796,0.9178537660534708,0.5696731278203169,0.5307646161702394,0.3667312022682653,0.3010760096450365,0.8806674089082906,0.9241792175659337,0.94609656628749,0.9561599279593096,0.9565587257383802,0.4944766332177372,0.6423347082557869,0.14484342491046004,0.9432078259073052,0.5223111424306554,0.2711200746853652,0.13393370026963963,0.2378789761603843,0.4933408844597807,0.3615711833731489,0.1348805270639288,0.6389139730312263,0.316714945937317,0.5799989964106095,0.9300041713054679,0.6111441084417176,0.5348156189734422,0.03758895804485988,0.18100981105165623,0.27240637346985647,0,0.21052742680724584,0.5276807738553004,0.558306970791552,0.9168279024098955,0.08865976488808612,0.4928533362716892,0.3604246629875837,0.6201020625636945,0.04230678168366777,0.1323028396660776,0.0890184215461272,0.08220825965145798,0.5134585761837892,0.17261920191707544,0.299638634383878,0.3993301679566538,0.8866078636207886,0.9006944400910245,0.9126135862717297,0.05299694913894555,0.3957101138201281,0.9311239618357542,0.5394547927035381,0.579658620784097,0.10694559151858014,0.10048909841931809,0.30792061851860775,0.13072036744288193,0.5690920480094136,0.14627841353799614,0.21483085650636236,0.499584877665895,0.9254479769883948,0.41926832526607755,0.935611237821875,0.9346704725231576,0.6827757318269296,0.26500451696143906,0.2353251061633872,0.5691232608545262,0.6435500778967982,0.32823732671035255,0.9692735895656607,0.6310808904705351],[0.23811379727559887,0.7303582461901764,0.5044304927454368,0.1993876768729536,0.8587636886775544,0.043519597633844186,0.7550258525014759,0.48251940705313434,0.955414489334769,0.9536250259170116,0.4356303676637279,0.9676789965794337,0.5678176604911889,0.2826397333561497,0.7172531800109426,0.8549687267374233,0.6653696695193619,0.449582008601015,0.35905654435130907,0.12091061219314496,0.8182781741615879,0.8658176030870287,0.9884095390184646,0.9883326428516237,0.9818073799244403,0.3826179848995036,0.796129676787054,0.3506792816647057,0.9638351578753294,0.6556168850566714,0.06561865036301309,0.3194593384335109,0.026067408469072493,0.38199459526756285,0.5602260622219795,0.07507420626952334,0.7729786874339546,0.516666055601924,0.7147649693796979,0.9633586837676477,0.7526803554941173,0.677663331804182,0.17605750663476344,0.03476092907761675,0.47484513010471346,0.21052742680724584,0,0.41670181929462774,0.6725855157564493,0.8543966074245476,0.30028773881378856,0.6152090196752311,0.553744124231215,0.6441809867604998,0.2540844041997534,0.3338296958437135,0.2923854755747943,0.29403117438195686,0.38761431910391136,0.3663621334324553,0.09557901637659875,0.5944719632383637,0.8500946999132646,0.8613419131058052,0.8805342137450476,0.16199299306036405,0.39769099959153315,0.9089244226095697,0.45345084922371715,0.6158651704065807,0.3188324367924425,0.26027284685707464,0.501573688070532,0.3422739701722221,0.47345106108175944,0.35665352481192303,0.021981426876975713,0.40540952539708064,0.9114934762811745,0.6078275842055922,0.9263071660267186,0.9324298477809039,0.8038124674571715,0.07767631411570393,0.05676319956104004,0.6002369576174306,0.7723924098980806,0.5197098560502891,0.972859098140143,0.7373254618536257],[0.501025579544123,0.6544192288458611,0.6619694288691127,0.4988009112472701,0.4593373861467362,0.3804687888567778,0.6472162663730803,0.6310808904705352,0.6191045936502885,0.62339902920123,0.03767871686765523,0.6479303495830447,0.681194748751009,0.5291547226695803,0.6262964347310475,0.4472386373956259,0.5469019084481654,0.07640867863294179,0.23747282818389853,0.30231401598335783,0.4120497718677025,0.460900961036469,0.703711986579107,0.6868813469052597,0.6699734051876496,0.03287131478027196,0.7752517942420254,0.5943188051129088,0.6465428396567582,0.6203317479842779,0.3686287084087077,0.5348292517552934,0.4044853018588585,0.033712568399283,0.7192971421581429,0.45669314844983633,0.7093503321050884,0.6908705629844365,0.6664388698460301,0.666409046752808,0.7109852801225599,0.6576109873015114,0.5180151030371379,0.4460207231361727,0.6687353890312904,0.5276807738553004,0.41670181929462774,0,0.5908633172224076,0.4469848688266001,0.5844311443846881,0.5693140122714885,0.6968128857814115,0.3908581018458043,0.5538978799884463,0.5724848910892066,0.5534095631181614,0.5917241381202414,0.04310148673143427,0.5736493465022712,0.35056657913329203,0.7335895459316792,0.4659585951384311,0.47349003849696386,0.49929794795323923,0.513041399673162,0.2502902754324089,0.5371715893271068,0.06735860833473555,0.3958587573793429,0.6005843831772297,0.4842430764068839,0.6600225451666859,0.6141260878303338,0.06310207280317656,0.6163694421935896,0.3937696969748954,0.04480188196982424,0.5497524444631119,0.722918705603955,0.5694374914139081,0.5845556372257411,0.7040890565381955,0.34139032133522806,0.35843424654040335,0.3763487582680801,0.6969381678170046,0.6665738640884842,0.6297257711533404,0.6206102646048304],[0.4968856793052173,0.06296177593135112,0.35172572292978244,0.5391258888874001,0.6446335489406394,0.6323392096012203,0.08290364164086636,0.3363832664767298,0.5263274814896648,0.5124217829147604,0.5591236025687323,0.5002709527752882,0.29248194089616175,0.4724609242459398,0.04314242471446533,0.6795323323658633,0.06063405837450106,0.5236761224261766,0.3808898198154073,0.6582562810251489,0.6517377840962774,0.6720794907308076,0.4519655708761675,0.48010506911778383,0.4944662383291823,0.5824582434881881,0.1898839089618355,0.4650679159695347,0.4930353346661994,0.07006052153379011,0.6889830390260477,0.43335150574225084,0.687779505430103,0.5810177834811128,0.36700179166194263,0.6337389276704832,0.11709977942631813,0.38075518817702264,0.08031023829391758,0.45541232474923643,0.12247964647307437,0.10226442080119598,0.5885884497646026,0.6685217188418947,0.404114560640116,0.558306970791552,0.6725855157564493,0.5908633172224076,0,0.6775750612920174,0.5183080893269459,0.06610549950807174,0.3380393119036957,0.2807759187936748,0.5370512213141535,0.4585608392182114,0.4879766168188737,0.5372051083250182,0.6197357133338554,0.4177395412368678,0.6998801723897484,0.34372896564721006,0.587683950806749,0.6051377047665636,0.5950724966