"trial_id","rt","stimulus","response","trial_type","trial_index","plugin_version","time_elapsed","participant_number","success","raw_payload","placements","dissimilarity_vector","n_words","trial_category","distance_matrix","value"
"consent_form","38530","
    <div style=""max-width:800px; margin:0 auto; text-align:left; font-size: 16px; padding: 10px 0;"">
      <h1>Informed Consent Form</h1>
      <p>You are being invited to participate in a research study titled <strong>""Reproducibility of Psychological Science and Instruction.""</strong> This study is being done by Dr. Bria Long from UC San Diego and associated graduate students in the Experimental Methods course. You were selected to participate in this study because you are an adult in the U.S. and have been a represented population in previous psychology studies.</p>
      
      <p>The purpose of this study is to better understand how well previously published studies in the psychological field replicate online and with different populations. Your participation in this research should last approximately <strong>5-30 minutes</strong>. If you agree to take part in this study, you may be asked to view a set of stimuli, including pictures, sounds, written text, or videos and then giving some responses via key-presses, verbally, or with paper-and-pencil. We may also observe your choices or preferences among an array of stimuli. These stimuli will be taken directly from or closely adapted from studies that already exist in the published psychological literature. Stimuli will include, e.g., pictures of objects and human faces, audio and video clips, short text passages, etc. None of the stimuli will be disturbing, threatening, or offensive. The online and in-person experiments described in this protocol will take no more than 30 minutes. An example game you might play would be to click on an image on the screen that matches a word you hear being said out loud. Your total expected time commitment for this study is between 5-30 minutes, and is specified in the study description.</p>
      
      <p>Your participation in this study is completely voluntary and you can withdraw at any time. Choosing not to participate or withdrawing will result in no penalty or loss of benefits to which you are entitled. You are free to skip any question that you choose.</p>
      
      <p>We will not be asking for any personally identifying information, and we will handle responses as confidentially as possible. Your SONA or Prolific IDs will never be tied to your responses on this survey. However, we cannot guarantee the confidentiality of information transmitted over the Internet. To minimize this risk, data containing anything that might be personally identifying (e.g. Prolific IDs or IP addresses) will be encrypted on transfer and storage and will only be accessible to qualified lab personnel. We will be keeping data collected as part of this experiment indefinitely. This anonymized data (containing neither Prolific IDs nor IP addresses) may be shared with the scientific community or with other participants to be used as stimuli in future studies.</p>
      
      <p>If you have questions about this project or if you have a research-related problem, you may contact the researcher(s), <strong>Dr. Bria Long, <a href=""mailto:brlong@ucsd.edu"">brlong@ucsd.edu</a></strong>. If you have any questions concerning your rights as a research subject, you may contact the UC San Diego Office of IRB Administration at <a href=""mailto:irb@ucsd.edu"">irb@ucsd.edu</a> or 858-246-4777.</p>
      
      <h3 style=""margin-top: 25px;"">Consent Statement</h3>
      <p style=""font-weight: bold;"">By participating in this research you are indicating that you are at least 18 years old, have read this consent form, and agree to participate in this research study. Please keep this consent form for your records.</p>
    </div>
  ","0","html-button-response","0","2.1.0","38533","mc5sg7o73g_f1j1lc","","","","","","","",""
"","32243","","{""participant_date"":""11/25/25"",""participant_time"":""7:50 PM""}","survey-html-form","1","2.1.0","70777","mc5sg7o73g_f1j1lc","","","","","","","",""
"","4148","
    <div style=""display:flex; align-items:center; justify-content:center; height:100vh; font-family:sans-serif;"">
      <div style=""max-width:900px; margin:0 auto; text-align:center;"">
        <h1 style= ""font-size: 24px;"">Welcome! Thank you for participating in the study.</h1>
        <h2 style= ""font-size: 22px;"">The study will be in Madarin Chinese.</h2>
        <h2 style= ""font-size: 22px;"">Please use desktop computers or laptops for the study. Tablets and phones are not allowed.</h2>
        <p style=""font-size:16px; margin-top:30px;""><em>Press any key to continue.</em></p>
      </div>
    </div>
  "," ","html-keyboard-response","2","2.1.0","74926","mc5sg7o73g_f1j1lc","","","","","","","",""
"","1131","
    <div style=""display:flex; align-items:center; justify-content:center; height:100vh; font-family:sans-serif;"">
      <div style=""max-width:900px; margin:0 auto; text-align:center;"">
        <p style=""font-size:18px; line-height:1.6;"">
          In this task, you will be presented with <strong>90 words</strong> arranged <strong>outside a circle</strong>.<br>
          Your job is to <strong>drag these words into the circle</strong> and <strong>rearrange them</strong> based on their <strong>meaning similarity</strong>.<br><br>
          Words that are <strong>similar in meaning</strong> should be placed <strong>closer together</strong>.<br>
          Words that are <strong>different in meaning</strong> should be placed <strong>farther apart</strong>.<br><br>
          You can place the words <strong>anywhere inside the circle</strong>. There is no single correct answer — 
          we are interested in <strong>your personal judgment</strong> of how these words relate to each other.<br><br>
          <strong>You must move all words into the circle before you can finish.</strong><br>
          After the initial arrangement, you will arrange words from specific categories.
        </p>
        <p style=""font-size:16px; margin-top:30px;""><em>Press any key to continue.</em></p>
      </div>
    </div>
  "," ","html-keyboard-response","3","2.1.0","76059","mc5sg7o73g_f1j1lc","","","","","","","",""
"","1502","","","fullscreen","4","2.1.0","78565","mc5sg7o73g_f1j1lc","true","{""placements"":[{""word"":""骄傲"",""x"":479,""y"":390.7,""cx"":498,""cy"":408.1,""angle_rad"":0.374,""angle_deg"":21.4},{""word"":""冰箱"",""x"":534,""y"":377.7,""cx"":553,""cy"":395.1,""angle_rad"":0.219,""angle_deg"":12.5},{""word"":""兔子"",""x"":419,""y"":117.7,""cx"":438,""cy"":135.1,""angle_rad"":-1.182,""angle_deg"":292.3},{""word"":""反感"",""x"":506,""y"":426.7,""cx"":525,""cy"":444.1,""angle_rad"":0.493,""angle_deg"":28.3},{""word"":""协议"",""x"":424,""y"":86.7,""cx"":443,""cy"":104.1,""angle_rad"":-1.209,""angle_deg"":290.7},{""word"":""嘴唇"",""x"":503,""y"":128.7,""cx"":522,""cy"":146.1,""angle_rad"":-0.87,""angle_deg"":310.2},{""word"":""剪刀"",""x"":350,""y"":355.7,""cx"":369,""cy"":373.1,""angle_rad"":0.882,""angle_deg"":50.6},{""word"":""长颈鹿"",""x"":505,""y"":457.7,""cx"":531,""cy"":475.1,""angle_rad"":0.605,""angle_deg"":34.6},{""word"":""制度"",""x"":499,""y"":447.7,""cx"":518,""cy"":465.1,""angle_rad"":0.601,""angle_deg"":34.4},{""word"":""过失"",""x"":597,""y"":325.7,""cx"":616,""cy"":343.1,""angle_rad"":-0.026,""angle_deg"":358.5},{""word"":""友情"",""x"":611,""y"":349.7,""cx"":630,""cy"":367.1,""angle_rad"":0.061,""angle_deg"":3.5},{""word"":""方法"",""x"":611,""y"":401.7,""cx"":630,""cy"":419.1,""angle_rad"":0.242,""angle_deg"":13.9},{""word"":""蚂蚁"",""x"":573,""y"":389.7,""cx"":592,""cy"":407.1,""angle_rad"":0.232,""angle_deg"":13.3},{""word"":""沮丧"",""x"":549,""y"":494.7,""cx"":568,""cy"":512.1,""angle_rad"":0.639,""angle_deg"":36.6},{""word"":""沙发"",""x"":515,""y"":597.7,""cx"":534,""cy"":615.1,""angle_rad"":0.964,""angle_deg"":55.2},{""word"":""暴力"",""x"":453,""y"":512.7,""cx"":472,""cy"":530.1,""angle_rad"":0.975,""angle_deg"":55.9},{""word"":""筷子"",""x"":468,""y"":328.7,""cx"":487,""cy"":346.1,""angle_rad"":-0.028,""angle_deg"":358.4},{""word"":""概念"",""x"":484,""y"":508.7,""cx"":503,""cy"":526.1,""angle_rad"":0.855,""angle_deg"":49},{""word"":""麻雀"",""x"":467,""y"":480.7,""cx"":486,""cy"":498.1,""angle_rad"":0.828,""angle_deg"":47.4},{""word"":""椅子"",""x"":413,""y"":497.7,""cx"":432,""cy"":515.1,""angle_rad"":1.11,""angle_deg"":63.6},{""word"":""买卖"",""x"":391,""y"":549.7,""cx"":410,""cy"":567.1,""angle_rad"":1.301,""angle_deg"":74.5},{""word"":""魔力"",""x"":359,""y"":432.7,""cx"":378,""cy"":450.1,""angle_rad"":1.298,""angle_deg"":74.4},{""word"":""结果"",""x"":367,""y"":432.7,""cx"":386,""cy"":450.1,""angle_rad"":1.225,""angle_deg"":70.2},{""word"":""敌意"",""x"":418,""y"":363.7,""cx"":437,""cy"":381.1,""angle_rad"":0.343,""angle_deg"":19.7},{""word"":""纠纷"",""x"":321,""y"":560.7,""cx"":340,""cy"":578.1,""angle_rad"":1.615,""angle_deg"":92.5},{""word"":""关系"",""x"":316,""y"":565.7,""cx"":335,""cy"":583.1,""angle_rad"":1.635,""angle_deg"":93.7},{""word"":""铅笔"",""x"":301,""y"":546.7,""cx"":320,""cy"":564.1,""angle_rad"":1.71,""angle_deg"":98},{""word"":""愤怒"",""x"":285,""y"":574.7,""cx"":304,""cy"":592.1,""angle_rad"":1.759,""angle_deg"":100.8},{""word"":""团队"",""x"":410,""y"":612.7,""cx"":429,""cy"":630.1,""angle_rad"":1.296,""angle_deg"":74.2},{""word"":""洗衣机"",""x"":413,""y"":559.7,""cx"":439,""cy"":577.1,""angle_rad"":1.197,""angle_deg"":68.6},{""word"":""大腿"",""x"":441,""y"":507.7,""cx"":460,""cy"":525.1,""angle_rad"":1.01,""angle_deg"":57.9},{""word"":""慈善"",""x"":328,""y"":483.7,""cx"":347,""cy"":501.1,""angle_rad"":1.591,""angle_deg"":91.1},{""word"":""手指"",""x"":358,""y"":450.7,""cx"":377,""cy"":468.1,""angle_rad"":1.346,""angle_deg"":77.1},{""word"":""性质"",""x"":320,""y"":494.7,""cx"":339,""cy"":512.1,""angle_rad"":1.639,""angle_deg"":93.9},{""word"":""猫"",""x"":266,""y"":554.7,""cx"":278,""cy"":572.1,""angle_rad"":1.884,""angle_deg"":108},{""word"":""眼睛"",""x"":250,""y"":579.7,""cx"":269,""cy"":597.1,""angle_rad"":1.888,""angle_deg"":108.1},{""word"":""床"",""x"":228,""y"":540.7,""cx"":240,""cy"":558.1,""angle_rad"":2.057,""angle_deg"":117.9},{""word"":""鼠标"",""x"":225,""y"":475.7,""cx"":244,""cy"":493.1,""angle_rad"":2.208,""angle_deg"":126.5},{""word"":""微波炉"",""x"":212,""y"":528.7,""cx"":238,""cy"":546.1,""angle_rad"":2.09,""angle_deg"":119.7},{""word"":""原因"",""x"":164,""y"":399.7,""cx"":183,""cy"":417.1,""angle_rad"":2.76,""angle_deg"":158.1},{""word"":""锤子"",""x"":157,""y"":494.7,""cx"":176,""cy"":512.1,""angle_rad"":2.392,""angle_deg"":137},{""word"":""勺子"",""x"":238,""y"":557.7,""cx"":257,""cy"":575.1,""angle_rad"":1.963,""angle_deg"":112.4},{""word"":""缘分"",""x"":141,""y"":440.7,""cx"":160,""cy"":458.1,""angle_rad"":2.624,""angle_deg"":150.4},{""word"":""胳膊"",""x"":121,""y"":432.7,""cx"":140,""cy"":450.1,""angle_rad"":2.697,""angle_deg"":154.5},{""word"":""老鼠"",""x"":266,""y"":385.7,""cx"":285,""cy"":403.1,""angle_rad"":2.457,""angle_deg"":140.7},{""word"":""兴奋"",""x"":269,""y"":370.7,""cx"":288,""cy"":388.1,""angle_rad"":2.59,""angle_deg"":148.4},{""word"":""耳朵"",""x"":225,""y"":425.7,""cx"":244,""cy"":443.1,""angle_rad"":2.421,""angle_deg"":138.7},{""word"":""社会"",""x"":211,""y"":379.7,""cx"":230,""cy"":397.1,""angle_rad"":2.768,""angle_deg"":158.6},{""word"":""牙刷"",""x"":124,""y"":299.7,""cx"":143,""cy"":317.1,""angle_rad"":-2.984,""angle_deg"":189},{""word"":""过程"",""x"":228,""y"":368.7,""cx"":247,""cy"":386.1,""angle_rad"":2.804,""angle_deg"":160.7},{""word"":""光彩"",""x"":165,""y"":332.7,""cx"":184,""cy"":350.1,""angle_rad"":3.141,""angle_deg"":180},{""word"":""空调"",""x"":163,""y"":370.7,""cx"":182,""cy"":388.1,""angle_rad"":2.919,""angle_deg"":167.2},{""word"":""乌龟"",""x"":226,""y"":296.7,""cx"":245,""cy"":314.1,""angle_rad"":-2.812,""angle_deg"":198.9},{""word"":""地位"",""x"":167,""y"":256.7,""cx"":186,""cy"":274.1,""angle_rad"":-2.708,""angle_deg"":204.8},{""word"":""创伤"",""x"":110,""y"":270.7,""cx"":129,""cy"":288.1,""angle_rad"":-2.868,""angle_deg"":195.6},{""word"":""死亡"",""x"":268,""y"":120.7,""cx"":287,""cy"":138.1,""angle_rad"":-1.86,""angle_deg"":253.4},{""word"":""快乐"",""x"":123,""y"":167.7,""cx"":142,""cy"":185.1,""angle_rad"":-2.471,""angle_deg"":218.4},{""word"":""身份"",""x"":173,""y"":121.7,""cx"":192,""cy"":139.1,""angle_rad"":-2.214,""angle_deg"":233.2},{""word"":""婚姻"",""x"":151,""y"":190.7,""cx"":170,""cy"":208.1,""angle_rad"":-2.474,""angle_deg"":218.3},{""word"":""错误"",""x"":204,""y"":239.7,""cx"":223,""cy"":257.1,""angle_rad"":-2.51,""angle_deg"":216.2},{""word"":""脚踝"",""x"":372,""y"":325.7,""cx"":391,""cy"":343.1,""angle_rad"":-0.167,""angle_deg"":350.5},{""word"":""老虎"",""x"":239,""y"":296.7,""cx"":258,""cy"":314.1,""angle_rad"":-2.77,""angle_deg"":201.3},{""word"":""冷漠"",""x"":182,""y"":217.7,""cx"":201,""cy"":235.1,""angle_rad"":-2.485,""angle_deg"":217.6},{""word"":""疾病"",""x"":203,""y"":234.7,""cx"":222,""cy"":252.1,""angle_rad"":-2.489,""angle_deg"":217.4},{""word"":""扫帚"",""x"":230,""y"":185.7,""cx"":249,""cy"":203.1,""angle_rad"":-2.173,""angle_deg"":235.5},{""word"":""难过"",""x"":260,""y"":52.7,""cx"":279,""cy"":70.1,""angle_rad"":-1.819,""angle_deg"":255.8},{""word"":""钥匙"",""x"":335,""y"":90.7,""cx"":354,""cy"":108.1,""angle_rad"":-1.554,""angle_deg"":270.9},{""word"":""天堂"",""x"":222,""y"":264.7,""cx"":241,""cy"":282.1,""angle_rad"":-2.584,""angle_deg"":211.9},{""word"":""义务"",""x"":337,""y"":144.7,""cx"":356,""cy"":162.1,""angle_rad"":-1.539,""angle_deg"":271.8},{""word"":""数据"",""x"":379,""y"":212.7,""cx"":398,""cy"":230.1,""angle_rad"":-1.19,""angle_deg"":291.8},{""word"":""爱心"",""x"":388,""y"":292.7,""cx"":407,""cy"":310.1,""angle_rad"":-0.611,""angle_deg"":325},{""word"":""内容"",""x"":329,""y"":240.7,""cx"":348,""cy"":258.1,""angle_rad"":-1.592,""angle_deg"":268.8},{""word"":""现象"",""x"":247,""y"":264.7,""cx"":266,""cy"":282.1,""angle_rad"":-2.462,""angle_deg"":219},{""word"":""柜子"",""x"":418,""y"":165.7,""cx"":437,""cy"":183.1,""angle_rad"":-1.09,""angle_deg"":297.5},{""word"":""奇迹"",""x"":429,""y"":176.7,""cx"":448,""cy"":194.1,""angle_rad"":-1.01,""angle_deg"":302.2},{""word"":""恐惧"",""x"":392,""y"":186.7,""cx"":411,""cy"":204.1,""angle_rad"":-1.175,""angle_deg"":292.7},{""word"":""膝盖"",""x"":535,""y"":365.7,""cx"":554,""cy"":383.1,""angle_rad"":0.161,""angle_deg"":9.2},{""word"":""舒心"",""x"":397,""y"":222.7,""cx"":416,""cy"":240.1,""angle_rad"":-1.03,""angle_deg"":301},{""word"":""债务"",""x"":386,""y"":169.7,""cx"":405,""cy"":187.1,""angle_rad"":-1.245,""angle_deg"":288.7},{""word"":""大象"",""x"":385,""y"":179.7,""cx"":404,""cy"":197.1,""angle_rad"":-1.231,""angle_deg"":289.5},{""word"":""作用"",""x"":463,""y"":175.7,""cx"":482,""cy"":193.1,""angle_rad"":-0.871,""angle_deg"":310.1},{""word"":""纪律"",""x"":468,""y"":249.7,""cx"":487,""cy"":267.1,""angle_rad"":-0.544,""angle_deg"":328.8},{""word"":""电视"",""x"":552,""y"":209.7,""cx"":571,""cy"":227.1,""angle_rad"":-0.508,""angle_deg"":330.9},{""word"":""肩膀"",""x"":36,""y"":368.7,""cx"":55,""cy"":386.1,""angle_rad"":3.02,""angle_deg"":173},{""word"":""鼻子"",""x"":93,""y"":370.7,""cx"":112,""cy"":388.1,""angle_rad"":2.983,""angle_deg"":170.9},{""word"":""斧头"",""x"":146,""y"":352.7,""cx"":165,""cy"":370.1,""angle_rad"":3.033,""angle_deg"":173.8},{""word"":""风景"",""x"":546,""y"":247.7,""cx"":565,""cy"":265.1,""angle_rad"":-0.376,""angle_deg"":338.5},{""word"":""熊猫"",""x"":473,""y"":329.7,""cx"":492,""cy"":347.1,""angle_rad"":-0.02,""angle_deg"":358.8},{""word"":""骗局"",""x"":509,""y"":276.7,""cx"":528,""cy"":294.1,""angle_rad"":-0.304,""angle_deg"":342.6},{""word"":""桌子"",""x"":444,""y"":308.7,""cx"":463,""cy"":326.1,""angle_rad"":-0.208,""angle_deg"":348.1}],""n_words"":90,""words"":[""骄傲"",""冰箱"",""兔子"",""反感"",""协议"",""嘴唇"",""剪刀"",""长颈鹿"",""制度"",""过失"",""友情"",""方法"",""蚂蚁"",""沮丧"",""沙发"",""暴力"",""筷子"",""概念"",""麻雀"",""椅子"",""买卖"",""魔力"",""结果"",""敌意"",""纠纷"",""关系"",""铅笔"",""愤怒"",""团队"",""洗衣机"",""大腿"",""慈善"",""手指"",""性质"",""猫"",""眼睛"",""床"",""鼠标"",""微波炉"",""原因"",""锤子"",""勺子"",""缘分"",""胳膊"",""老鼠"",""兴奋"",""耳朵"",""社会"",""牙刷"",""过程"",""光彩"",""空调"",""乌龟"",""地位"",""创伤"",""死亡"",""快乐"",""身份"",""婚姻"",""错误"",""脚踝"",""老虎"",""冷漠"",""疾病"",""扫帚"",""难过"",""钥匙"",""天堂"",""义务"",""数据"",""爱心"",""内容"",""现象"",""柜子"",""奇迹"",""恐惧"",""膝盖"",""舒心"",""债务"",""大象"",""作用"",""纪律"",""电视"",""肩膀"",""鼻子"",""斧头"",""风景"",""熊猫"",""骗局"",""桌子""],""distance_matrix"":[[0,0.08618148074141209,0.4599622267014073,0.06687985211198613,0.5092737856921097,0.43244207479764163,0.21549321699022475,0.11663792557837628,0.09270414870245941,0.21726065754778437,0.22313154741624272,0.21347142190552948,0.14901990098706153,0.20158072981471484,0.34362341418128795,0.2005352465502521,0.09699724818221143,0.189415957677101,0.1436414124771188,0.20217486761568915,0.2960555807862213,0.20455462951707748,0.19194721865692424,0.10326615728406231,0.3804635441948631,0.3923079934469548,0.3881725640960818,0.4396209045162268,0.38111659449317864,0.2914880418739132,0.19764646001305516,0.2887034364728848,0.21783225973912554,0.3099077283251782,0.4513896030326954,0.489135896489523,0.49167535408075097,0.44040068920873354,0.4848326677039436,0.5196546193979779,0.5586249054494009,0.4829099326043109,0.5641557247136528,0.5956288049787948,0.3485706614908194,0.345036598598895,0.42121715863824166,0.44103854101245143,0.6057234964634962,0.4137787945832239,0.5266662962031933,0.5221750958839886,0.44384185704906526,0.5606028420698735,0.6418345049748541,0.5658138787391571,0.6955641347084224,0.6743607595259589,0.6353725010027211,0.5173090839199904,0.20129976594987412,0.42348287269340196,0.5675647997175154,0.522852253154508,0.5320615721860157,0.6665156013784602,0.5492245859976075,0.4712088000157804,0.4675494637087976,0.3336662430328877,0.21561231548091278,0.3470174729083003,0.4339684321981717,0.3822001896150217,0.35980893583504947,0.3631836968754529,0.09424626831437014,0.3047983953257463,0.3933439401085439,0.37862841778636663,0.3528211143709047,0.22850793410693088,0.3185809275475313,0.7349008665072891,0.639313382278767,0.5532321902335985,0.25614635610314146,0.09419159120021517,0.1890395147049232,0.14089368842164543],[0.08618148074141209,0,0.46797709728638454,0.0860479248485852,0.5128962376070424,0.4120356031171845,0.3020607606999434,0.13052288870581288,0.12263244203598919,0.12837500606925148,0.12878476818568577,0.12664044301359298,0.05984743503277014,0.18916744363624696,0.3615779752361113,0.2553384557371525,0.1292340989934263,0.22647855889969132,0.19740787750538633,0.2770923113676839,0.3663745096510824,0.298924379080285,0.2861595451321177,0.18729712303268206,0.46214291499593885,0.4739620194656185,0.4739096130565335,0.5236394212861912,0.4368194070413618,0.35141507679519857,0.25936932502356275,0.37976960534610327,0.31082391767698275,0.4002576142096195,0.5396169749970299,0.575608672788086,0.5829641027655152,0.5348063402471539,0.5769681641908199,0.6127224884310077,0.6530914670496368,0.572125869976208,0.658588721431397,0.68981287527299,0.44086040885278377,0.4357868172688776,0.5155939672350504,0.5328587020860659,0.6909986381608167,0.5045756435433058,0.6145332263591379,0.6134139904632593,0.52526027640416,0.6391702610141767,0.7244197087588496,0.6114119476778169,0.7650648523746459,0.7332438322065853,0.7058492785494594,0.5909981809016585,0.27663458385549144,0.5042168904172802,0.6395475125367087,0.5958194281585967,0.5941202960568811,0.70396502419004,0.5768337969450908,0.5476533641885494,0.5028782516977853,0.37090689551975126,0.27462270655068244,0.40473111904145126,0.5084511605433192,0.39651218320139225,0.3715578866857612,0.39037947050561095,0.011636766514925163,0.33819268835528066,0.41934014405033737,0.4068027170269376,0.3503402991365618,0.23284154328861933,0.27465742965631307,0.8263101021314272,0.73072661544412,0.6431463764585384,0.21027858414284475,0.12155718503959127,0.1658530066840133,0.18153885173514578],[0.4599622267014073,0.46797709728638454,0,0.5295195292684205,0.044085339810891744,0.13345162204247016,0.4068027170269376,0.5822773809992761,0.5606028420698735,0.4503255146420583,0.4962152963375716,0.5660559551860411,0.5153661120293255,0.659874015597498,0.8119364072928505,0.6559789680861946,0.3545313506917075,0.6558204076629927,0.6051904335909107,0.6284680131025964,0.7170675447856093,0.5289317997338772,0.5265849267241091,0.4037885206392156,0.751937748185646,0.7619572061780961,0.7372250772938697,0.7897016860945025,0.8212824913251402,0.7323115437805168,0.6461893212187171,0.6236002238602629,0.558897280556202,0.6447846615749009,0.7714807432868199,0.8160164200072633,0.7742922451187529,0.6739554127189448,0.7575838577510444,0.6287171497063666,0.7609720839614038,0.7889199663136339,0.7057607886119458,0.7182687575868143,0.5087092201088348,0.4844481507176386,0.6015795019096426,0.5521684677158364,0.5724475273693189,0.5201224777284671,0.5492371782212064,0.5947376575790454,0.432664997463387,0.47383681693207824,0.5693954917842537,0.2446012301072188,0.4946209256785381,0.40383961905024557,0.4570266857527983,0.405800421235661,0.3488812753116792,0.4169467441008911,0.42261385569799004,0.40320213894075824,0.3281249888329696,0.27937003376741065,0.13934406235948113,0.4034511121812489,0.13615622165114005,0.16422643281490937,0.28934544615275737,0.2469157041644038,0.37069582359670383,0.07192574681009033,0.09175629501296736,0.11564652705588824,0.450362248418611,0.17127021138359907,0.0946826426501797,0.10997469162000993,0.11347854116262034,0.227456741542905,0.26251770698002,0.7589925558982648,0.6831248838892029,0.5952241125424681,0.2960740269970909,0.3581424710163851,0.2976929425191022,0.3143278454703108],[0.06687985211198613,0.0860479248485852,0.5295195292684205,0,0.5776826718879889,0.49096999433700605,0.2787399594971416,0.04437811194407019,0.028556365053401,0.21932281143454113,0.20970007138125923,0.1723683520183842,0.1197414148411959,0.12630752050225363,0.2784709026031487,0.16077719238547428,0.16763206916566303,0.13375796207304783,0.10310271567962868,0.18756949681427074,0.27369352221318466,0.23805185825899505,0.2246544905176758,0.1728568619283009,0.374337932952346,0.38604588173458787,0.38960403456040305,0.43727336697682667,0.3422926333210877,0.2569253421436572,0.1655305217451746,0.3047311428239844,0.2427633702147204,0.32339784212016776,0.4577502535442696,0.4913410645743652,0.5059535519981093,0.46955748483384935,0.5019847930684724,0.5664787330210667,0.5874285414154445,0.49145345573167293,0.603696306176654,0.6368477100751943,0.39955602806903284,0.39963863020399115,0.4624531916374263,0.49215252335776055,0.6661992316013272,0.4674550376541734,0.5843375293834797,0.5739832231357865,0.5088911426212479,0.6271103807767237,0.7048536261687129,0.6412273010165823,0.7664237010555415,0.7483476421730814,0.7059731460507506,0.5868342733683218,0.27271132854931296,0.48921209939677546,0.637709048373022,0.5927037997757401,0.6056114315318469,0.7417826363347031,0.6233779687262294,0.5394785763600826,0.5425076697177162,0.4085576748418676,0.29072861331628463,0.42181816330819777,0.5035013734756496,0.4531241653048685,0.4299151723016063,0.43680363623104723,0.10466449655606613,0.37913602697529847,0.4668674046614464,0.4524695178365734,0.41829488859553454,0.2948912088510008,0.3632592671945705,0.7852175205650778,0.690036113187384,0.6074818395604072,0.2988832583557891,0.16319075512157594,0.24292541743626217,0.21487791129203632],[0.5092737856921097,0.5128962376070424,0.044085339810891744,0.5776826718879889,0,0.14141916170555058,0.4590859024849479,0.630557302535499,0.6094625193841389,0.4859872653304541,0.532352517900542,0.6054673179946229,0.5574100056425234,0.7066962609277955,0.861439061028971,0.7071439111941583,0.4037306014505416,0.7059004010732346,0.6557760039626411,0.680595822409453,0.7694773984466521,0.5815446317213966,0.5792166391904742,0.45585453329284453,0.8044875801626219,0.814481744991956,0.789567932516912,0.8419464819192247,0.8734181068696558,0.7842985093740092,0.697685660294046,0.6760618264427984,0.6115184333844643,0.6971882224202506,0.8232151073344692,0.8677504823012068,0.8250303434797862,0.7238387782648777,0.8081147065814286,0.6734798007160914,0.8087405799081772,0.8402468694192674,0.7511097723972321,0.7623436137322221,0.5582904480295836,0.5337608722175884,0.6503341683950354,0.5986206981634705,0.6081496065469004,0.5670818140889298,0.5901846088548189,0.6379698334209551,0.475229684986217,0.5079373743990527,0.6014689784739916,0.2590702968731137,0.5139216176703906,0.41623634604788795,0.4811202344791905,0.44061340712250513,0.40142425638765616,0.4605495261046529,0.45269798876008543,0.43727336697682667,0.3565184241382984,0.2721864204214725,0.14078084643164632,0.44273195880838784,0.16671273724093316,0.21571255988840782,0.34197217350600156,0.29474303223523685,0.4122059070746299,0.12425015929146943,0.14253902189402715,0.16744060513352726,0.49474933105488333,0.22385800306825754,0.14446069811415377,0.16048657865162802,0.15432429030163555,0.2744440632797004,0.28900101023524316,0.7954233037761944,0.7224853216276171,0.636366513548607,0.3300388571477905,0.4069548813511134,0.3403372761718089,0.3650646093910125],[0.43244207479764163,0.4120356031171845,0.13345162204247016,0.49096999433700605,0.14141916170555058,0,0.4502949009151382,0.5431114925033603,0.5261857745986439,0.3573179107200652,0.4037476373506533,0.48354692138296995,0.4443880328428426,0.609748850452504,0.7778228549965017,0.6405264746553105,0.33177690246660907,0.6291842938470888,0.584534150276498,0.628081989666922,0.7216547298752535,0.5552763862058343,0.5496676612893755,0.41032204808213146,0.7771848689045968,0.7881745063228409,0.769603774037339,0.8235376177025203,0.8175482439903031,0.7271456559380162,0.6351564928480429,0.6548555446110196,0.5833700577746656,0.6773328099473727,0.8143229987450803,0.8582166887531499,0.828298253375779,0.7367125633418713,0.8137150417372456,0.7189120692117433,0.8356584619697089,0.8366462821756738,0.7924825550416869,0.8097488781833341,0.5774286179775043,0.5556947930620042,0.673323249780836,0.6368564162090536,0.6883792343710385,0.6032464379688495,0.6531806317502573,0.6909584757223045,0.5344649730753559,0.594120296056881,0.6918595679642885,0.3855756874762608,0.6317343310851823,0.5447057697570088,0.5905387774311514,0.5260412711232426,0.3879954809898525,0.5159556514641243,0.5497934708191461,0.5247626842782629,0.4589086374708911,0.41821260587908426,0.280159342115744,0.5147141669232279,0.27098292908660937,0.24249492427457645,0.3271890683089714,0.33829800516559544,0.4773389660494375,0.14683841507993098,0.13929656251519068,0.20137338807135122,0.392304489089464,0.22892237595083378,0.19925479712938773,0.2069211471453894,0.09490013952901323,0.20258111996624006,0.15013038325334435,0.871531890031272,0.7894535202235657,0.6978745948429798,0.20353705511274126,0.3320904583680705,0.23972661878608462,0.3089535026650001],[0.21549321699022475,0.3020607606999434,0.4068027170269376,0.2787399594971416,0.4590859024849479,0.4502949009151382,0,0.31232903543830687,0.28497027460206226,0.40850378625794853,0.4290428785440274,0.43566982873346116,0.369553256079459,0.39831843622585505,0.4823923071529276,0.3061850629504546,0.19435001388633746,0.33235428174998505,0.27843174604067084,0.251839158706533,0.32380807588406757,0.12139512906961954,0.12362458076848898,0.10621726426448687,0.33848425661070697,0.3480274211080723,0.3219643893840797,0.37435627657648046,0.4338065067925349,0.35295714299997644,0.288396103367965,0.20914583389257543,0.1512507301451592,0.22980214554337272,0.3582267400812375,0.4026251703298864,0.3694826599325298,0.28189117185625373,0.3551807540761379,0.3118208073523362,0.39011528679226093,0.37859576299876574,0.36963126806742985,0.3964081307403119,0.1409594735842268,0.12952944938169692,0.23158711526513048,0.22788490920128726,0.3817181633502575,0.19710072185220967,0.30392747932597347,0.3058992840939753,0.2216229401546528,0.3401963251473063,0.41821260587908426,0.4086384946660812,0.48548423803430674,0.4832385276068641,0.42474909117186466,0.30400838810087116,0.05380952109169174,0.20215486778332306,0.35586754978104435,0.31058191187061046,0.3402366026809824,0.5212558487044588,0.43634288207068983,0.2546935519984153,0.34579063533326043,0.23602126439557672,0.11477251551903482,0.18739751531743432,0.22182425207855686,0.3297026354372953,0.31940436616083445,0.283338545625105,0.30199291531858347,0.22789085051499303,0.30900216678509745,0.29223154241469984,0.3476845177148784,0.2573219046928088,0.4092138833429892,0.5182138848795074,0.4229558127520251,0.3334239712603918,0.36655056505928113,0.20217486761568915,0.28904349648232963,0.1676081475423176],[0.11663792557837628,0.13052288870581288,0.5822773809992761,0.04437811194407019,0.630557302535499,0.5431114925033603,0.31232903543830687,0,0.018944132505011816,0.2546081571618883,0.2370243598013569,0.18209966436124533,0.14457082821272496,0.07915913005253218,0.22616755221285909,0.1266508336321117,0.2199077009716649,0.08897271272157994,0.07616086307362217,0.17042452535485356,0.24623294283499397,0.2513045237348493,0.23808033877618692,0.21427351538685768,0.3551807540761379,0.36655056505928113,0.37529429866874425,0.4195042601812385,0.3024630055398238,0.22169006368717023,0.13700799201900124,0.30292787638417906,0.24984624234844843,0.3191944143863767,0.44561761985462117,0.47587967274347787,0.4986639270639101,0.4734522711171055,0.49677714139026347,0.5827978419612974,0.5897081445340343,0.4803479316974411,0.6139558075005903,0.6481644871291583,0.42108312457813507,0.42407423584599185,0.47548804355417157,0.5126375559354464,0.6936522821228462,0.49030587783655416,0.6096625106050272,0.5943300369017966,0.541568774812513,0.6607078182908311,0.7345984876341075,0.6888285709077201,0.8047225222290878,0.7914805892108687,0.7440594653552394,0.6239356811078555,0.3139708903160996,0.5226883333373058,0.6753946415449188,0.6301725418071781,0.648168765196772,0.7909747430187516,0.6744039548942261,0.5753416874952246,0.5925191997344479,0.45871627395913417,0.33740991127071085,0.4672484153267823,0.5409479186024301,0.5056230814540442,0.48256681645941657,0.4882290330025302,0.1504045822677858,0.42998244635920196,0.5183605350075764,0.503742732238557,0.4712088000157804,0.3478067395219344,0.4125096116560809,0.8031249596497344,0.7087378636099517,0.6296687045429418,0.3480274211080723,0.21573761398958227,0.2948773203672363,0.26597811226947327],[0.09270414870245941,0.12263244203598919,0.5606028420698735,0.028556365053401,0.6094625193841389,0.5261857745986439,0.28497027460206226,0.018944132505011816,0,0.2537473242188498,0.24090070795811352,0.1943984717928396,0.14904664420809843,0.10647402090875832,0.24430140353362303,0.12492543767491375,0.19757150669687237,0.09674406493806255,0.06850132138520325,0.15819398534416015,0.24044979036783207,0.22745674154290496,0.214128468603456,0.18704591688336974,0.3448498255054621,0.3564260629916209,0.3625028714030739,0.40855767484186756,0.30568477939062977,0.2211831018096144,0.13132862886474334,0.28435704354951685,0.22784331582421527,0.30165346582998137,0.4318970321055729,0.46383204609351664,0.4828041640088715,0.4531089514885051,0.48001739256207765,0.558696726127112,0.5700829357429382,0.4661932426168972,0.5916281162283863,0.6255349871387975,0.395585174477134,0.39799722004149873,0.45219520318124895,0.48745647057907726,0.6671894741702932,0.4645956802751566,0.5835409029299927,0.5692374827910798,0.5143731150037545,0.6334520683424039,0.7077972135411298,0.6625188609992048,0.7772349257495477,0.7642127679756914,0.7165737168362486,0.5964675620838973,0.2866310563733225,0.49541595414693357,0.6479141716528034,0.6026951280048944,0.6208565679314014,0.765291795403891,0.649956696807363,0.5479184877024372,0.5673575070220327,0.4337302860882401,0.311004202768337,0.44042572007661374,0.5134670388528021,0.483238527606864,0.46059743645472523,0.46426304190776857,0.14155960112517957,0.4055291140185279,0.4944450129517417,0.47961181740503367,0.45134073342600617,0.3273731156386855,0.40014764112540063,0.7787244453820839,0.6840990411155874,0.6041848190578115,0.335814544897922,0.19398274208862848,0.27856387803639576,0.2420132393613945],[0.21726065754778437,0.12837500606925148,0.4503255146420583,0.21932281143454113,0.4859872653304541,0.3573179107200652,0.40850378625794853,0.2546081571618883,0.2537473242188498,0,0.03802481817479532,0.12098367986839031,0.10602125393647016,0.28592589156502435,0.4676320711465313,0.3870556171572972,0.20773454319057805,0.3519532123269197,0.33053635058055614,0.4136290898012515,0.5015416077552,0.4288373801325805,0.4166429050981315,0.2981696231847866,0.5990439362896787,0.6108588340497574,0.6106229305166849,0.6605377817119202,0.5656108471040292,0.483238527606864,0.3932390671526072,0.5143596832116551,0.4435343431897568,0.5353360690490924,0.6757745034684391,0.7122446242363581,0.717441081433043,0.6637611229370683,0.7106213325463178,0.7277468717153425,0.781487055628889,0.7079050590096869,0.7797069844325997,0.8092079527601096,0.5552988087298184,0.5463790081274978,0.6371153699946838,0.6447459585115536,0.7854670103821989,0.614136308412401,0.7156432448260087,0.7228003918400477,0.6152002005769821,0.721416144708141,0.8129253929839985,0.6411970340220572,0.828922461583112,0.7801185377328609,0.7725101645720898,0.6657660640034883,0.36858605665647176,0.5934789684999077,0.7102227542606291,0.6692402337234638,0.6498372257015255,0.7184021031518764,0.58137320843149,0.628269515990196,0.5224529406286101,0.4030246962853807,0.34610764486600853,0.4627125930560345,0.5869475130043057,0.3938713856684989,0.36784036585142543,0.4066031281918864,0.1151251330953647,0.36852645565956765,0.4312842494116407,0.42291023413724393,0.32858780812315275,0.24241097602951123,0.20000380399260548,0.9345291309209546,0.8395912461732834,0.7487484138361724,0.1476589183840288,0.19940346330285022,0.16027869113270865,0.24948174526570752],[0.22313154741624272,0.12878476818568577,0.4962152963375716,0.20970007138125923,0.532352517900542,0.4037476373506533,0.4290428785440274,0.2370243598013569,0.24090070795811352,0.03802481817479532,0,0.07861287117760501,0.08393037078501901,0.25577991790283355,0.4371945876533509,0.37195311533397024,0.23371287896618445,0.3325396603822754,0.3177511059222957,0.4057970309918721,0.4898072096704049,0.43616286902929713,0.42344710502211513,0.3157993812377095,0.5925822972642492,0.6042925605369548,0.6071009111078816,0.6553868159652623,0.5462802752312864,0.46725727240971776,0.3804635441948631,0.5162903220297482,0.4480607078769967,0.5364094482339196,0.6742208700583464,0.7089160561192279,0.7193348381101868,0.6720427145978359,0.7137631469657195,0.7453630130790165,0.7902927493328021,0.707293065741168,0.7938720014232227,0.8244639286889099,0.5728632414756053,0.5657747456951564,0.6508669522244949,0.6637945527924896,0.8120271424697284,0.6342065058554133,0.7395570890443969,0.7431910464018168,0.6428553173919793,0.7518121313286262,0.8415780802626239,0.6827287403835398,0.8644468190126209,0.8191162699151868,0.8072404323340204,0.6981211281520328,0.39406681897065154,0.6212760154660734,0.7437887756018242,0.7019670433774403,0.6867143662111457,0.7621340299036545,0.6258627786796729,0.6588581860489435,0.5650307105780987,0.4430586826266685,0.3772508958597325,0.4982067495633406,0.617984322289234,0.438406249609161,0.41233943058721745,0.44904411438840497,0.12163274211971012,0.4085576748418676,0.47441887870153193,0.4654677453837963,0.37433426412205917,0.28393470137757293,0.24610058403553753,0.955763030350503,0.8604099133116342,0.7708772166440175,0.19418378455858035,0.22517796414262503,0.20169434653681786,0.27968211757454087],[0.21347142190552948,0.12664044301359298,0.5660559551860411,0.1723683520183842,0.6054673179946229,0.48354692138296995,0.43566982873346116,0.18209966436124533,0.1943984717928396,0.12098367986839031,0.07861287117760501,0,0.05824722917876749,0.17879959491438613,0.3572679939983997,0.31510568477665796,0.26056733479678773,0.2698045151170084,0.2667547912461031,0.3602815093188689,0.43588165023089864,0.4170259707733778,0.4037203795725711,0.3211601266001798,0.5458015513238801,0.5571890601960395,0.5650894852792976,0.6100509450189773,0.4799052458907639,0.40693797695596506,0.3272518230495489,0.485313604027608,0.42339832615178863,0.5035150900900156,0.6347810334863222,0.666099294533401,0.6854281778431627,0.6502275599224606,0.6821249467800667,0.7406978750899376,0.7682251707598178,0.6691324537280946,0.7819492175581367,0.8144066430574157,0.5703450666311949,0.5670452077541285,0.639694884501034,0.6629248356420779,0.8254481647871352,0.6357955797227954,0.7479076623001035,0.7441621153139703,0.6603383010177798,0.7743424869140646,0.8594345722745061,0.7346684236836929,0.8985872535739409,0.862797544882918,0.8397237361581498,0.7256988163831204,0.4118184490483107,0.6393415691038713,0.7738686503657227,0.7303902119198613,0.7255534015282725,0.8211064218034172,0.6884094678894339,0.6827287403835398,0.6211243326545246,0.4930242875772998,0.4074954593391925,0.5357362534263738,0.6433532727329114,0.5024578334681784,0.47652010174634796,0.5058579831684661,0.13240907228335713,0.459085902484948,0.5331595924071448,0.5224502951738897,0.4442608575681563,0.34125408133857105,0.32812498883296964,0.9568229420794394,0.8612501251861167,0.7751763886941723,0.27163044823946464,0.2523511621915137,0.26187434058888753,0.31184711478307103],[0.14901990098706153,0.05984743503277014,0.5153661120293255,0.1197414148411959,0.5574100056425234,0.4443880328428426,0.369553256079459,0.14457082821272496,0.14904664420809843,0.10602125393647016,0.08393037078501901,0.05824722917876749,0,0.17198748598613708,0.3533920910593468,0.2794822278105552,0.19499287025570508,0.2405287598746425,0.22561629772172723,0.3150145267056592,0.3976342513026866,0.35731791072006513,0.3441814024878464,0.25488558916906445,0.5019077450020473,0.5135531433245377,0.5178617578849883,0.5651972232604985,0.45443978553645387,0.37480725334468434,0.2882210177581594,0.43129702442539436,0.36604840151214546,0.4505887084316658,0.5860031903511433,0.6195697083285695,0.6334520683424039,0.5922994751616601,0.628911100152814,0.6772017206827438,0.7105978928799015,0.6196144351332,0.7205766286250384,0.7524916926818154,0.5060736704894574,0.5019957989859095,0.5778647560009489,0.5984494688970277,0.7590126875714046,0.5707938115437292,0.6819622185122289,0.6794105062286115,0.5936026229469153,0.7075520498005687,0.7927315358970374,0.6731027815994719,0.8325110194479411,0.7984856325468422,0.7734879374154205,0.6591001904169335,0.3450246798598918,0.572582908797544,0.7074343413867292,0.6638467836142282,0.6603698019243713,0.7623673022326191,0.6320063206821545,0.6159744378325558,0.5616409757592711,0.43162904464512125,0.34157921050986356,0.4706580167555889,0.5766681948777732,0.44803301894514064,0.422405291633497,0.4473217608138374,0.06678667536099177,0.39812159188816887,0.47541838740943665,0.46388854379235955,0.39476053895919105,0.28477877761633685,0.2952058441556489,0.8922314646561945,0.796633233637091,0.7098493751228095,0.233730273715892,0.1869237859842261,0.20912647455421138,0.24676719388936535],[0.20158072981471484,0.18916744363624696,0.659874015597498,0.12630752050225363,0.7066962609277955,0.609748850452504,0.39831843622585505,0.07915913005253218,0.10647402090875832,0.28592589156502435,0.25577991790283355,0.17879959491438613,0.17198748598613708,0,0.17325908761271117,0.15516734019285952,0.30105059353904473,0.10290122773793757,0.13088604797479375,0.21946455391935843,0.27187100391409774,0.3264476745664163,0.3137268888625947,0.3019793444635251,0.38930402953272214,0.399724656323353,0.4161768169583397,0.45382649781597967,0.2970684690343832,0.23357367597940448,0.1737837361949733,0.3623400448234584,0.31998211066695137,0.3752906389796825,0.4878301673843377,0.5124785107702656,0.5466093165989255,0.5354574463786129,0.5475093870583173,0.6561248102682249,0.6485023686505224,0.5233225809403989,0.6812844496510769,0.716331521435364,0.4997705295052986,0.5047371374819181,0.5467029311880512,0.5898842223372307,0.7752194047076547,0.5694611135914188,0.6900260589598235,0.6710099343260781,0.6264736136168375,0.7458454438177297,0.8175346402893513,0.7755544903184236,0.8915996597642836,0.8791856376497623,0.830899405557749,0.7105373368719304,0.4016469131174727,0.608001529539082,0.7621486114927601,0.7168894181707887,0.7358619924046365,0.8766184662887944,0.7577506918427389,0.6615531614009588,0.6773307618702935,0.5433711622634004,0.4244215283745545,0.5546880992015629,0.6277354721980609,0.5850124012656215,0.5611554337306253,0.5709077616484977,0.20894570429939185,0.5137226200182684,0.6008745715920315,0.5867115727861517,0.545233638949419,0.42397031849037287,0.4691812562280981,0.8768723453411603,0.7835309654535433,0.7076462026027188,0.4054917953732505,0.29594488005396286,0.3629531124578812,0.3494624593936267],[0.34362341418128795,0.3615779752361113,0.8119364072928505,0.2784709026031487,0.861439061028971,0.7778228549965017,0.4823923071529276,0.22616755221285909,0.24430140353362303,0.4676320711465313,0.4371945876533509,0.3572679939983997,0.3533920910593468,0.17325908761271117,0,0.16779942966896538,0.4491668916413287,0.14942057391380742,0.2034244260864663,0.23087824458061576,0.21432394431460783,0.3720564719016703,0.3629720182045045,0.41603457479298656,0.3224867488837345,0.3292912433784378,0.36019390031003823,0.37888955700491134,0.16923538694208254,0.16295338464994627,0.18675123586820033,0.3585444901180863,0.3519532123269197,0.3610956586234049,0.4265575783417311,0.4366553633065836,0.49341622745695773,0.5187975769211605,0.5008940302772417,0.6669316516477815,0.615855213839965,0.4605615041509007,0.6713261316754796,0.7074264934710808,0.5395939109841998,0.5525115820673537,0.5566002785759587,0.6184751453208087,0.8154710852403877,0.6068749799281644,0.7272888471071722,0.6935022304125925,0.6908741270946681,0.8081078261881011,0.8639414159869897,0.8918071902622491,0.966739603770869,0.9738805325424463,0.9066733000353268,0.7863157503651084,0.5065320470639343,0.6759633292951167,0.838344827176033,0.7937529502809605,0.8311487056524048,1,0.8932274121946596,0.7349103138654075,0.8072610952863047,0.6758483980398141,0.5452260290277975,0.6661825764512638,0.7079207442709657,0.7335770493419782,0.7116831296092645,0.7105373368719304,0.3817613541495089,0.6503917297985098,0.7407203731253587,0.7251839948121678,0.7041365258986444,0.5800477583265782,0.6447481087418924,0.8813619106182119,0.7946279141697218,0.733866599538196,0.5804008673153236,0.446143126487688,0.5295900136773807,0.4902636371562905],[0.2005352465502521,0.2553384557371525,0.6559789680861946,0.16077719238547428,0.7071439111941583,0.6405264746553105,0.3061850629504546,0.1266508336321117,0.12492543767491375,0.3870556171572972,0.37195311533397024,0.31510568477665796,0.2794822278105552,0.15516734019285952,0.16779942966896538,0,0.30088720806776964,0.04384458208121081,0.04999854920161046,0.06305827157624312,0.11247286912058886,0.19834697808216173,0.1883272846684307,0.24799667713757434,0.22687867333555792,0.23766990148359318,0.25252340044180793,0.2916097465337908,0.17390696367222788,0.08771135154063815,0.013243193526299804,0.20653615560742136,0.18159796253522476,0.21641301998552215,0.3241586990639479,0.34976445938376804,0.38314094508949936,0.37861390488746316,0.38458716368745977,0.5115718349030807,0.4885088963245397,0.35963347207167884,0.5281550112552131,0.5638613114667834,0.3703437757611956,0.3810264593358308,0.40049120884146705,0.454303232384967,0.648386909703339,0.4392101111731607,0.5607114291952823,0.5326796448789888,0.5166648998860952,0.6348225194136135,0.6950612040366037,0.7179981261638615,0.7916701990938206,0.797539924884561,0.7314065573372106,0.6107885260505441,0.33303351154738553,0.501100793338696,0.6628871782228016,0.6181255573431625,0.654872484126474,0.827594622127884,0.7259187972768085,0.5595281932955496,0.6381935900546049,0.5093687242179694,0.37596343533299353,0.49250589677679335,0.5318380611200941,0.576026944886086,0.5560730844769529,0.5473603188240489,0.2735889841850653,0.48651531952077637,0.5772368062186537,0.5611283100479095,0.5565629932749797,0.43299598903018416,0.5257468886759165,0.7309071078939466,0.6401108128423069,0.5717217318766978,0.46219066317531354,0.3000143577678992,0.3980075858152561,0.3337196018928961],[0.09699724818221143,0.1292340989934263,0.3545313506917075,0.16763206916566303,0.4037306014505416,0.33177690246660907,0.19435001388633746,0.2199077009716649,0.19757150669687237,0.20773454319057805,0.23371287896618445,0.26056733479678773,0.19499287025570508,0.30105059353904473,0.4491668916413287,0.30088720806776964,0,0.2943490861012084,0.24623294283499397,0.2893454461527573,0.38372150478620737,0.24397340827543018,0.2344481672942078,0.09375312223653673,0.4518078366533296,0.4633798210080672,0.4517468043393745,0.5053634721889038,0.4773042719081987,0.38691355689015033,0.2948773203672363,0.3415430999574082,0.2667905065857685,0.36422144585666955,0.5074149090536989,0.5486929347862289,0.5370457679732837,0.4674845478083035,0.526773894904903,0.5147141669232279,0.5823439495122378,0.5354677751136458,0.5708107842563435,0.5986368930265954,0.343256254269865,0.33235428174998505,0.4300080718571133,0.4306226352334481,0.5700926464119568,0.39927712234512863,0.49936966469993127,0.5075020233447142,0.40061138938589547,0.5102061419420942,0.5993374857101492,0.47511352382431243,0.629591663801675,0.595503239789503,0.5709562442587897,0.45842457194698477,0.15244182688442046,0.37902006063166205,0.5056695240232478,0.4627483613573622,0.456845618029088,0.570730765685847,0.44843895513796794,0.4175109126761671,0.37004335010341627,0.2365204593222361,0.13849627090611952,0.2672034476262737,0.37710158139968186,0.2772299782080053,0.254480012923708,0.2614116243679619,0.1197414148411959,0.20529821127054287,0.291314761616377,0.2773331848327251,0.2480404782948274,0.12386880185927787,0.2356016121694471,0.718645540655409,0.6239379020859914,0.5326692629344072,0.17993585290500647,0,0.10244654255063249,0.04381776289281129],[0.189415957677101,0.22647855889969132,0.6558204076629927,0.13375796207304783,0.7059004010732346,0.6291842938470888,0.33235428174998505,0.08897271272157994,0.09674406493806255,0.3519532123269197,0.3325396603822754,0.2698045151170084,0.2405287598746425,0.10290122773793757,0.14942057391380742,0.04384458208121081,0.2943490861012084,0,0.04635826323458644,0.1118794327310833,0.16181105161580128,0.23665798942239194,0.22530414428540785,0.25848701792594436,0.2782309847441177,0.28881210902631044,0.3047311428239844,0.3428727218985113,0.20539672251310104,0.1286210102294403,0.06354704838076917,0.2562683894900893,0.2239486504234924,0.26734095728897206,0.37638698519727765,0.40132830544555886,0.43553066711453825,0.4290846086177971,0.43689509915845187,0.5580822415563151,0.540055007008354,0.41188527763098354,0.5775604521484251,0.613086413821753,0.41100228321275045,0.41967159383717023,0.4473217608138374,0.4975549050173943,0.689182999912311,0.480520298215373,0.6021249181612316,0.5771096963324784,0.5511654704067397,0.6702260398739642,0.734498297500899,0.7357827323342911,0.8238110625854795,0.8236220238577496,0.7632323449628858,0.642266333510389,0.3510754035812364,0.5345063623431809,0.6944060568954156,0.6492993372238134,0.6801941451533092,0.8430144403219246,0.7352635588939349,0.5915508735014774,0.64944452505084,0.5178831056198542,0.3876481685062979,0.5103794187489529,0.5616015563014238,0.5769177800875003,0.5555180042209993,0.5527694058349405,0.24592951869654628,0.4925199143905773,0.5829332292927355,0.5673306754555179,0.5507185582693824,0.4264025829728427,0.5054181376683917,0.7781782585234288,0.6864476171994118,0.6154208660261603,0.4411010268001106,0.29204934457378773,0.3825702985277613,0.3333212619412755],[0.1436414124771188,0.19740787750538633,0.6051904335909107,0.10310271567962868,0.6557760039626411,0.584534150276498,0.27843174604067084,0.07616086307362217,0.06850132138520325,0.33053635058055614,0.3177511059222957,0.2667547912461031,0.22561629772172723,0.13088604797479375,0.2034244260864663,0.04999854920161046,0.24623294283499397,0.04635826323458644,0,0.08634446044703119,0.1635094611467926,0.18955073474108133,0.17737706264977898,0.2040662730388003,0.2705000792173613,0.28189600841666373,0.2908787765531998,0.33479731181272726,0.23245132884809058,0.14553110881325348,0.054280818285578646,0.22449179409556055,0.18094672958703228,0.2389616093119859,0.361498265476241,0.39124125404304594,0.41587242676990294,0.39716710006003947,0.41485178872150835,0.5171594684033821,0.5115880394029811,0.3964081307403119,0.5419746351054324,0.5769537691751475,0.36409329891167835,0.37110675014854194,0.4074245485296438,0.45273453360652327,0.6415082843810843,0.43385731329991006,0.5551667521386763,0.5333333063873672,0.4996793259958151,0.6190036390298201,0.6856872248920121,0.6809198481158422,0.7710051672811458,0.7692227795619679,0.7103536842445192,0.5893699297993584,0.2961708512841262,0.48253821262611335,0.6414737083676877,0.5962887558026129,0.6257232665015167,0.7883419871361734,0.6815776205732261,0.5389169343271459,0.5953218217551256,0.4642570998100935,0.33325962153551575,0.4554883852448842,0.5082283107709106,0.5257889532409196,0.5049669734277757,0.5000219453539632,0.21538660149096167,0.43953313300458474,0.5301248722313405,0.5143596832116551,0.5027216657046638,0.37864655814502823,0.4675081546145086,0.7378652248592171,0.6448835589885754,0.5706943899541106,0.4038328062946043,0.24475101030563792,0.3405586556597576,0.28231648131026427],[0.20217486761568915,0.2770923113676839,0.6284680131025964,0.18756949681427074,0.680595822409453,0.628081989666922,0.251839158706533,0.17042452535485356,0.15819398534416015,0.4136290898012515,0.4057970309918721,0.3602815093188689,0.3150145267056592,0.21946455391935843,0.23087824458061576,0.06305827157624312,0.2893454461527573,0.1118794327310833,0.08634446044703119,0,0.08609246442126713,0.13309504087426177,0.12492543767491375,0.2162131112815477,0.17834917041127038,0.19001112234003878,0.19636166976597483,0.24182816075914051,0.18427561991861519,0.09603457742302281,0.04128869184531876,0.13584524120695102,0.11271638116973273,0.14741592272110388,0.2666935541673585,0.29728901703895416,0.32124532656687776,0.30871892546142926,0.3207508599077375,0.4399749507276022,0.42057603214641354,0.3015402334243638,0.45726799989947553,0.49286742584261245,0.30121389283147965,0.31327761742283133,0.32888767580751105,0.3835710718461157,0.5786427681729958,0.3694826599325298,0.490733715141865,0.4614589876313819,0.4516155574531941,0.5686828939127162,0.6260421064121647,0.6684874882725463,0.727813643167493,0.7391269667316176,0.6679457404475698,0.5479866419059983,0.2878278818891215,0.43705905463772554,0.5998756766031422,0.5555678094997837,0.5977293144915528,0.7801933425341127,0.6860594357698868,0.4964434474244775,0.596690415410258,0.472542122761101,0.3376088150776832,0.444648475606053,0.4709745014857014,0.5479967381152209,0.5301639873734559,0.5139216176703906,0.29273085269835686,0.45317284614849235,0.5430885745972264,0.5265297984337424,0.5376401977705315,0.41723716982847636,0.527466208266969,0.6593294875233502,0.5685173870265358,0.5007202844320986,0.4660985467553557,0.29046564619258886,0.39532091779483486,0.3124778463662214],[0.2960555807862213,0.3663745096510824,0.7170675447856093,0.27369352221318466,0.7694773984466521,0.7216547298752535,0.32380807588406757,0.24623294283499397,0.24044979036783207,0.5015416077552,0.4898072096704049,0.43588165023089864,0.3976342513026866,0.27187100391409774,0.21432394431460783,0.11247286912058886,0.38372150478620737,0.16181105161580128,0.1635094611467926,0.08609246442126713,0,0.19476499259825386,0.1916457186013921,0.3064839599349078,0.11022332574807316,0.1199930140271595,0.1423901872602722,0.1739993296903092,0.10174826529805087,0.04287027902368268,0.10090445231883316,0.14438723398933873,0.16636774591282144,0.1419894650325001,0.2128631866548176,0.23308002042379944,0.27679708734090047,0.2960878609222422,0.28189117185625373,0.44750352962564827,0.39435979118024733,0.24825390195029104,0.44858647892552034,0.4846760488216608,0.3370849243642007,0.35454295736596914,0.3387513124780367,0.406447449962477,0.6045400649597678,0.399724656323353,0.5166114051213495,0.4773187281014546,0.4977325117972493,0.6096420599275634,0.6551773214763887,0.7394913658376776,0.7736010931632843,0.79654076353376,0.7152707211061973,0.5982758764214172,0.3682581345098051,0.48616618551878116,0.649017410518102,0.6063246388169846,0.6585866158105924,0.8529497356783495,0.7665088898261306,0.5468268829791537,0.6762998027315081,0.5566723565169482,0.42225206309502156,0.5197051467833463,0.5266689208191354,0.6366822712120603,0.6198916702713967,0.5998964555433333,0.383083559162283,0.5396451630282585,0.6284437556624435,0.6117087027303112,0.6298425623258053,0.5105959334264202,0.6220071494951276,0.6593631391885836,0.5741278911650433,0.518397857614475,0.5604275782353466,0.38498715463961275,0.4899565807078565,0.40505729448877115],[0.20455462951707748,0.298924379080285,0.5289317997338772,0.23805185825899505,0.5815446317213966,0.5552763862058343,0.12139512906961954,0.2513045237348493,0.22745674154290496,0.4288373801325805,0.43616286902929713,0.4170259707733778,0.35731791072006513,0.3264476745664163,0.3720564719016703,0.19834697808216173,0.24397340827543018,0.23665798942239194,0.18955073474108133,0.13309504087426177,0.19476499259825386,0,0.004862465622286315,0.14362295088773797,0.21525482987014147,0.22574224179290744,0.20584273908233164,0.2598460303227283,0.30503590531730856,0.22760549884766434,0.17771674622302122,0.09148984828060831,0.021670445159497214,0.1142245288884269,0.255859621581438,0.2981925218613058,0.2851759946156784,0.22733766815461526,0.2759836418110871,0.3229489649153033,0.34562409174095166,0.28305446295481196,0.3570989945301818,0.3903759492069068,0.16611056592452422,0.1746369195450001,0.21636305946766443,0.25494957045761957,0.4440560613326155,0.2358316478460408,0.3572833537151164,0.336022523310009,0.3102956681905859,0.4280240722211841,0.48937011269231934,0.5362006147367415,0.5862394115710606,0.5988496996681588,0.5263197338459287,0.40635943208133946,0.17211971413962907,0.2954600903879254,0.45823501835549446,0.4139616950595114,0.4585238312222599,0.6496494415786919,0.5661048471371366,0.354805942537793,0.4755896074672591,0.3617259621224412,0.2310952292531089,0.3171780295424708,0.32988531583254854,0.44978028456016206,0.43629867508985537,0.40747857690940237,0.30710760721180874,0.34916020443507223,0.43459652300942847,0.4177515291687027,0.4561569172500808,0.3484762442791979,0.48578270581810856,0.5433737074406153,0.44925895297255347,0.3728233866307981,0.43235924624381544,0.2489749464930685,0.35419846811220046,0.24343880858654415],[0.19194721865692424,0.2861595451321177,0.5265849267241091,0.2246544905176758,0.5792166391904742,0.5496676612893755,0.12362458076848898,0.23808033877618692,0.214128468603456,0.4166429050981315,0.42344710502211513,0.4037203795725711,0.3441814024878464,0.3137268888625947,0.3629720182045045,0.1883272846684307,0.2344481672942078,0.22530414428540785,0.17737706264977898,0.12492543767491375,0.1916457186013921,0.004862465622286315,0,0.13527010815507787,0.2194337478322161,0.23020845740860263,0.21224691380827135,0.2663002915875471,0.3016489373273665,0.2221167557846946,0.16805415021872946,0.09906654663437589,0.025185080105611025,0.12185915069393849,0.2645570367349405,0.3063635430385066,0.29584798388820593,0.24013931025077684,0.2871398240545166,0.33617740603999074,0.35846412152708684,0.2925349604696988,0.3704994582857513,0.4037851138533284,0.17817621960084545,0.18582838163226287,0.22975499210415218,0.26761068454249254,0.4557728558616268,0.24794739189488768,0.3692522018010106,0.34883018020240203,0.31981103308631836,0.4380006304214234,0.5006623559763066,0.5401062159794384,0.5952403985093009,0.6058401137646999,0.5351552440719266,0.41488496496118643,0.17099658274463939,0.3044934016029076,0.4668703594068524,0.422388993314914,0.4648806128557004,0.6531572802518804,0.567198938719777,0.3634254678542204,0.4767951395705564,0.3607534780764289,0.2287389267209108,0.3195157145806015,0.33750328851940603,0.4470751788026452,0.43295144692680915,0.40590889439431954,0.2946133182854646,0.3470174729083004,0.4334284501407562,0.41659004136596706,0.4512949134528814,0.341803814763786,0.47711340982912515,0.5565331632628727,0.46232791222058356,0.3854045686072577,0.42292976841884256,0.23918852506749488,0.345036598598895,0.2361074051543686],[0.10326615728406231,0.18729712303268206,0.4037885206392156,0.1728568619283009,0.45585453329284453,0.41032204808213146,0.10621726426448687,0.21427351538685768,0.18704591688336974,0.2981696231847866,0.3157993812377095,0.3211601266001798,0.25488558916906445,0.3019793444635251,0.41603457479298656,0.24799667713757434,0.09375312223653673,0.25848701792594436,0.2040662730388003,0.2162131112815477,0.3064839599349078,0.14362295088773797,0.13527010815507787,0,0.359511360987985,0.37075138022744536,0.35552045545635247,0.409516401405026,0.40902890330348696,0.3199949378943326,0.235877629002075,0.2428751380962694,0.16859421523862916,0.26567092290288224,0.4080083586391214,0.4501173010046066,0.4353566537411025,0.36547421129045593,0.42474909117186466,0.4214491675809042,0.48093946986528663,0.4350337573390803,0.4733502567422766,0.5025265528956743,0.24888219799745323,0.2414744484394107,0.3312316176509714,0.33945034990983836,0.49578096785155457,0.31003121497902414,0.41868962504328944,0.4190314351916852,0.3323048304203732,0.4487984610015357,0.5307269308380168,0.47010659971307583,0.5851046924785709,0.5686634249774964,0.5247152703363653,0.4060139507004772,0.09146175996128313,0.31181203772868443,0.45660106479669227,0.41171484374384165,0.42540347499495756,0.5761494851765866,0.4697219917836157,0.35950754436381627,0.38283239679805803,0.2528567891003659,0.12064705342462621,0.24592951869654628,0.3226437202244746,0.32333012597479893,0.3054343386871865,0.291314761616377,0.18759098389822457,0.230396657383777,0.3210194985007278,0.30478494598018285,0.3154700605988998,0.20010481491395296,0.3336169813150071,0.6317957581892484,0.5363269556758193,0.44773756578907437,0.2809950181774543,0.09983396815241284,0.20247463763996598,0.09342303321917492],[0.3804635441948631,0.46214291499593885,0.751937748185646,0.374337932952346,0.8044875801626219,0.7771848689045968,0.33848425661070697,0.3551807540761379,0.3448498255054621,0.5990439362896787,0.5925822972642492,0.5458015513238801,0.5019077450020473,0.38930402953272214,0.3224867488837345,0.22687867333555792,0.4518078366533296,0.2782309847441177,0.2705000792173613,0.17834917041127038,0.11022332574807316,0.21525482987014147,0.2194337478322161,0.359511360987985,0,0.003305440040279252,0.03237322948013353,0.056196797174342186,0.16422643281490937,0.1574001786411325,0.21133523773838353,0.12104873237716648,0.18598008762580198,0.10209160665273918,0.09585981586460299,0.11464715054416066,0.16238728145857012,0.20637281557669898,0.1706363210529121,0.36838113874697703,0.2877662591457767,0.1306642298840879,0.35405903117945453,0.3894593544845723,0.298924379080285,0.3216327088258326,0.2691122677764108,0.3464678990769575,0.539555468806087,0.3490384452396126,0.45450653019897425,0.40564783279300987,0.46173387273836514,0.562652630616765,0.5925822972642492,0.734288421548388,0.7290582992980187,0.7679719502860614,0.6739554127189448,0.5641213843007732,0.394516652980455,0.45480979385662074,0.6117856999216584,0.57257082245232,0.638250060075554,0.849052003951742,0.7795911406477001,0.5146067729816067,0.6892454091013389,0.5827978419612974,0.4544852943045043,0.5279874752092146,0.5028617712194368,0.6732016920314062,0.660065230992094,0.6295278229979968,0.4767285657671899,0.5721355464815203,0.6558204076629927,0.6390119233790299,0.679263474534377,0.5680327630380296,0.6957576273776963,0.5674453106825591,0.4889156891868571,0.44707209568301204,0.6375720940869702,0.45494619776622125,0.5623279149964499,0.46147094250068704],[0.3923079934469548,0.4739620194656185,0.7619572061780961,0.38604588173458787,0.814481744991956,0.7881745063228409,0.3480274211080723,0.36655056505928113,0.3564260629916209,0.6108588340497574,0.6042925605369548,0.5571890601960395,0.5135531433245377,0.399724656323353,0.3292912433784378,0.23766990148359318,0.4633798210080672,0.28881210902631044,0.28189600841666373,0.19001112234003878,0.1199930140271595,0.22574224179290744,0.23020845740860263,0.37075138022744536,0.003305440040279252,0,0.03202848931447909,0.04555932186432297,0.1676081475423176,0.1660623025058488,0.22242713509729797,0.13036117982817833,0.1966630863579895,0.11064834906378071,0.08875640322399284,0.10454034782305306,0.15610847908341347,0.20598029208834817,0.16546595304088754,0.3687164010102174,0.2833241074158421,0.12287850678303498,0.3519220380003869,0.387087573687654,0.3045831364766519,0.3276615324331848,0.2713294628908915,0.3494624593936267,0.5413210273844437,0.353100889059197,0.4568365627936313,0.406900784865466,0.46690286039438134,0.5664518604476974,0.5945420340371265,0.7416646813664379,0.732857415859181,0.7733082914890312,0.6781617789708977,0.5692253264632858,0.404533929900274,0.46044470515060765,0.616500551156726,0.5776970490057035,0.6444964837479612,0.8564240014404917,0.7882591326073386,0.5200028942667047,0.6979879313212906,0.5924818054798812,0.4646877085090072,0.5366362384079258,0.5090594318660729,0.683366521565557,0.6704267533876713,0.6393589142328978,0.48856824101649016,0.5821846480696148,0.6654972769335987,0.6487011670696885,0.690044156465247,0.5792046892593302,0.7073695935098163,0.5652951493268521,0.48798296228718,0.4482421826416191,0.6492715770787962,0.4665600108067493,0.5739470505144532,0.4726939336900248],[0.3881725640960818,0.4739096130565335,0.7372250772938697,0.38960403456040305,0.789567932516912,0.769603774037339,0.3219643893840797,0.37529429866874425,0.3625028714030739,0.6106229305166849,0.6071009111078816,0.5650894852792976,0.5178617578849883,0.4161768169583397,0.36019390031003823,0.25252340044180793,0.4517468043393745,0.3047311428239844,0.2908787765531998,0.19636166976597483,0.1423901872602722,0.20584273908233164,0.21224691380827135,0.35552045545635247,0.03237322948013353,0.03202848931447909,0,0.04550737176027642,0.20503529248876626,0.19210129930945502,0.23504864024553562,0.10633960089797317,0.17858953172842001,0.08424881371573878,0.06311710081026639,0.09327138478067755,0.12592155133918972,0.1657804995853084,0.13216969067051626,0.3282626501881711,0.24807332425651415,0.09864802002909819,0.3131510103247564,0.34857852846502463,0.2676157712037609,0.29129133768472065,0.23095450483973423,0.3094309734396879,0.5007864803141099,0.31392297603035396,0.41645454803896625,0.3663257988766597,0.4289401414042663,0.5269182006704952,0.5540417711334564,0.7076305113286016,0.6932860995898842,0.7354221812126808,0.6389663670251269,0.5311045032777477,0.3805285375066019,0.423183633648586,0.5778695469246381,0.5396015990963039,0.6081336615005922,0.822316146254584,0.7578973291801573,0.4823236307473117,0.6679602757443699,0.5663492445224728,0.4414757593264248,0.5064965920102723,0.47271436611949486,0.6594977288980315,0.6476894482651464,0.6138452248415041,0.48731201229595733,0.5578615583367613,0.6392223087691253,0.6225059737538631,0.6700024951824151,0.5625690093974948,0.6957735831631677,0.5265324237192195,0.4481529921923328,0.40766762100825693,0.6393784269480286,0.4555761660544873,0.5627313217595031,0.456845618029088],[0.4396209045162268,0.5236394212861912,0.7897016860945025,0.43727336697682667,0.8419464819192247,0.8235376177025203,0.37435627657648046,0.4195042601812385,0.40855767484186756,0.6605377817119202,0.6553868159652623,0.6100509450189773,0.5651972232604985,0.45382649781597967,0.37888955700491134,0.2916097465337908,0.5053634721889038,0.3428727218985113,0.33479731181272726,0.24182816075914051,0.1739993296903092,0.2598460303227283,0.2663002915875471,0.409516401405026,0.056196797174342186,0.04555932186432297,0.04550737176027642,0,0.21043901090532588,0.21912545770219657,0.2760280715228691,0.16015383565637462,0.23263777868236968,0.1378164215402291,0.04643496403415889,0.050713996297937325,0.11292471724425793,0.18548841937406396,0.12629710342916048,0.3480668141636552,0.24445691351782806,0.07522705039711806,0.3211558660239008,0.3550648742495575,0.30984155505923777,0.33443708622647345,0.26068736433255424,0.3410451970689235,0.5255785972883292,0.34971349023432674,0.4442112185023864,0.3898685572782676,0.4678001920224077,0.5599805344462533,0.5793982482403112,0.7529566946520894,0.7256988163831204,0.7736100730770178,0.6731563598648816,0.5691426566503169,0.43355556407757045,0.463757696719464,0.6142445838488635,0.5776826718879889,0.6499588300229815,0.8674041590569569,0.8070251621190525,0.5216799070802702,0.7174468861852411,0.6183407114773459,0.4946683836562899,0.5561228407962596,0.5149476726750114,0.7123323182651566,0.7008808042495087,0.6660743079532183,0.5376324820494057,0.6106025115621693,0.6910829717771723,0.6744183527432108,0.7237678079846758,0.6166218990476893,0.7494603735953722,0.5331284735729983,0.4610134519164291,0.430478674128587,0.6927354657342268,0.5090784288272738,0.6163207331868998,0.51088808508313],[0.38111659449317864,0.4368194070413618,0.8212824913251402,0.3422926333210877,0.8734181068696558,0.8175482439903031,0.4338065067925349,0.3024630055398238,0.30568477939062977,0.5656108471040292,0.5462802752312864,0.4799052458907639,0.45443978553645387,0.2970684690343832,0.16923538694208254,0.17390696367222788,0.4773042719081987,0.20539672251310104,0.23245132884809058,0.18427561991861519,0.10174826529805087,0.30503590531730856,0.3016489373273665,0.40902890330348696,0.16422643281490937,0.1676081475423176,0.20503529248876626,0.21043901090532588,0,0.08185645799707278,0.1749587112514758,0.24766244708106863,0.27663458385549144,0.2402014372767628,0.2625798872238424,0.2652813216580026,0.3304534857089364,0.3773091492434602,0.3411898225435009,0.536870660886404,0.45937419016433134,0.2941310369233907,0.5266269254194538,0.5621334892394109,0.44203727377264496,0.46090873454868436,0.43235924624381544,0.5050490327681859,0.7021172844491402,0.501673777814452,0.6150718184314867,0.5710531973128937,0.6043636137000304,0.7139187124209604,0.7539871749519026,0.8497773236511423,0.8790099758263248,0.9052985703684473,0.8213823603129918,0.705666387260752,0.476705407520727,0.5936935977399633,0.7559098392102568,0.7138175986859003,0.7681600648085024,0.9631841552270445,0.875386118453089,0.6544276784072497,0.7853750090786148,0.6639219888705776,0.5290859776275368,0.6295894625009718,0.6355666283181444,0.7408103585124313,0.7229463539709803,0.7061284416254289,0.45545811214970977,0.6455131415416304,0.7350746786831908,0.7184330203692374,0.7292963171729623,0.6076118031480459,0.7076462026027188,0.7399456768703374,0.6599244513417486,0.6125234825563893,0.6443351346674651,0.47741412819159545,0.5785757800166739,0.5041785355418376],[0.2914880418739132,0.35141507679519857,0.7323115437805168,0.2569253421436572,0.7842985093740092,0.7271456559380162,0.35295714299997644,0.22169006368717023,0.2211831018096144,0.483238527606864,0.46725727240971776,0.40693797695596506,0.37480725334468434,0.23357367597940448,0.16295338464994627,0.08771135154063815,0.38691355689015033,0.1286210102294403,0.14553110881325348,0.09603457742302281,0.04287027902368268,0.22760549884766434,0.2221167557846946,0.3199949378943326,0.1574001786411325,0.1660623025058488,0.19210129930945502,0.21912545770219657,0.08185645799707278,0,0.08545204727228978,0.19147021894670152,0.2016408874944277,0.1913648452008839,0.26144284364876225,0.27836320919742,0.32652314547021916,0.34733733678900736,0.33234191959011683,0.4974605260597914,0.44554338169378976,0.29653021530812834,0.49985895364713673,0.5359555845054446,0.3809254831947415,0.39693505479319147,0.38803444605759235,0.4537809241999449,0.6518121166758005,0.44539177441694405,0.5636895004543743,0.526167385416026,0.5392350124076937,0.6530914670496368,0.7018325902213675,0.7701397394966506,0.8157915131301519,0.8342945688466625,0.7568519251485484,0.6385757524354537,0.39183813622691943,0.5265875517391354,0.6898410353387862,0.6464681760164965,0.694587881464994,0.8825718073540824,0.7903718763836332,0.5869663841834785,0.700829319979092,0.5771216890096926,0.4421868928166723,0.5474740185514092,0.5646705840342406,0.6518631681105213,0.6335942765105821,0.6184146536584029,0.3694640798078273,0.5576283837813971,0.6476295090304197,0.6310845980302441,0.639116040155039,0.5172503114728839,0.6184392991142653,0.71031655726851,0.6245173109681684,0.5670452077541285,0.5554457787544149,0.38706982037836163,0.488706684421356,0.41408469266304126],[0.19764646001305516,0.25936932502356275,0.6461893212187171,0.1655305217451746,0.697685660294046,0.6351564928480429,0.288396103367965,0.13700799201900124,0.13132862886474334,0.3932390671526072,0.3804635441948631,0.3272518230495489,0.2882210177581594,0.1737837361949733,0.18675123586820033,0.013243193526299804,0.2948773203672363,0.06354704838076917,0.054280818285578646,0.04128869184531876,0.10090445231883316,0.17771674622302122,0.16805415021872946,0.235877629002075,0.21133523773838353,0.22242713509729797,0.23504864024553562,0.2760280715228691,0.1749587112514758,0.08545204727228978,0,0.18508257868807618,0.16022043673859038,0.19543408918675917,0.3065196301769288,0.3335882420373858,0.3643307128609372,0.3574522680557701,0.3652187324967699,0.4897874780729909,0.46797709728638454,0.3418799870709926,0.5066847486342045,0.5423546982049857,0.3490227313556068,0.36002624244196246,0.3787118564002876,0.432645894219846,0.6269600905134814,0.4177680047809213,0.5392247547073926,0.5109313528362778,0.49637668216750486,0.6142874376757957,0.6738113228772715,0.7019848367415653,0.7717598290014974,0.7790990603476571,0.7115895046074487,0.5911129767767549,0.3176994410982616,0.48106285611790806,0.6431722420848082,0.5985165780131187,0.6367258118673658,0.8122274091401864,0.7126342938543667,0.5397604626114143,0.624373063336792,0.49671876085511263,0.36261264434532614,0.4767633010648669,0.5126375559354464,0.5659899444522946,0.5466219681415401,0.5357285107146688,0.2768906079861573,0.47481428034116413,0.5654420071011337,0.5491842889715807,0.5491540642912658,0.42626045534815965,0.5244702311136337,0.7091607539251225,0.618325025651014,0.5500148267662938,0.46144703245798996,0.2945901492393457,0.3950704097639528,0.3250441721918487],[0.2887034364728848,0.37976960534610327,0.6236002238602629,0.3047311428239844,0.6760618264427984,0.6548555446110196,0.20914583389257543,0.30292787638417906,0.28435704354951685,0.5143596832116551,0.5162903220297482,0.485313604027608,0.43129702442539436,0.3623400448234584,0.3585444901180863,0.20653615560742136,0.3415430999574082,0.2562683894900893,0.22449179409556055,0.13584524120695102,0.14438723398933873,0.09148984828060831,0.09906654663437589,0.2428751380962694,0.12104873237716648,0.13036117982817833,0.10633960089797317,0.16015383565637462,0.24766244708106863,0.19147021894670152,0.18508257868807618,0,0.06620638728004577,0.014251345661499869,0.1574001786411325,0.1987810591827183,0.19466132736812317,0.16461625705440372,0.1891105965555261,0.30030103368751004,0.27866660534075666,0.18675123586820033,0.3130724015407709,0.3487908713006468,0.18582838163226287,0.20512077657924646,0.18958618715179615,0.2538383529836503,0.4519268263984757,0.2468937080903843,0.3638821372347569,0.32665727400978967,0.34848804779611353,0.4579219359590111,0.5023148674488865,0.6081496065469004,0.6228086390584293,0.651499340478746,0.5652192580826177,0.4502152956644212,0.2663616162673355,0.33858139160672235,0.500052327861156,0.4584516447507176,0.5172609978609851,0.7228080747837176,0.6502829984811045,0.3992667888403604,0.5598668650760924,0.4536624117684943,0.3270216649591642,0.3987601259555385,0.382832396798058,0.5454035666267109,0.5331621855626315,0.5006954587579356,0.3908299404137586,0.443956732823948,0.5266662962031933,0.5098810918296816,0.5551194035629679,0.4485096495611901,0.5846573012452314,0.5174773505099961,0.42851930944938105,0.3673175020439012,0.5299631661690145,0.3459927616624223,0.4523476203683238,0.34336803914209413],[0.21783225973912554,0.31082391767698275,0.558897280556202,0.2427633702147204,0.6115184333844643,0.5833700577746656,0.1512507301451592,0.24984624234844843,0.22784331582421527,0.4435343431897568,0.4480607078769967,0.42339832615178863,0.36604840151214546,0.31998211066695137,0.3519532123269197,0.18159796253522476,0.2667905065857685,0.2239486504234924,0.18094672958703228,0.11271638116973273,0.16636774591282144,0.021670445159497214,0.025185080105611025,0.16859421523862916,0.18598008762580198,0.1966630863579895,0.17858953172842001,0.23263777868236968,0.27663458385549144,0.2016408874944277,0.16022043673859038,0.06620638728004577,0,0.0889006629062429,0.2321246940699582,0.2734495398651398,0.2662031661844674,0.21828478874448423,0.25861324019649023,0.32767406668149907,0.3363362923056436,0.26093768854579436,0.355562895844783,0.3898438759226788,0.18026349349225293,0.19203828062091208,0.21828478874448423,0.2650811793332858,0.45824404646242706,0.24907856706217316,0.3706217354263827,0.344738509493534,0.3314258723561853,0.44777450789510026,0.5050873226405151,0.5647833010117921,0.6080243129319263,0.6241088939884101,0.5485013152659234,0.4292996159277284,0.20228150134590694,0.3176649933363598,0.48089068067413315,0.43707166409905024,0.48473300689606436,0.6784849080097229,0.5960959573463953,0.3776657594946106,0.5055602407119416,0.3919258379858517,0.2610158671902052,0.34678430438750624,0.35451200541003713,0.4796262052652849,0.4658854119596116,0.43761038530599483,0.32056737749971126,0.3791650131415103,0.4647826866276556,0.44793763310201135,0.48484975039260747,0.3755101585976754,0.5100219718941793,0.5483979142007056,0.45543086467523497,0.3829257044870275,0.4552128272476427,0.27125416596410173,0.37761119763858136,0.2697136611813817],[0.3099077283251782,0.4002576142096195,0.6447846615749009,0.32339784212016776,0.6971882224202506,0.6773328099473727,0.22980214554337272,0.3191944143863767,0.30165346582998137,0.5353360690490924,0.5364094482339196,0.5035150900900156,0.4505887084316658,0.3752906389796825,0.3610956586234049,0.21641301998552215,0.36422144585666955,0.26734095728897206,0.2389616093119859,0.14741592272110388,0.1419894650325001,0.1142245288884269,0.12185915069393849,0.26567092290288224,0.10209160665273918,0.11064834906378071,0.08424881371573878,0.1378164215402291,0.2402014372767628,0.1913648452008839,0.19543408918675917,0.014251345661499869,0.0889006629062429,0,0.13486908114978127,0.17601968767056742,0.17442975460819765,0.15384058243443485,0.17007883873393673,0.2976011880702715,0.2646650306467045,0.1647784250578019,0.30483873989925914,0.3408201051079825,0.1953445438653846,0.2161881101902239,0.18825591989873447,0.2570364393449318,0.4548734540108002,0.2529534997440512,0.3672576998596253,0.3267871598717085,0.35883137727663367,0.4656958783937716,0.5061036957317564,0.6243619660034282,0.6313327158693091,0.6634559986825352,0.5744460344650473,0.461016443498075,0.2878278818891215,0.3500270316480273,0.5101736460968535,0.46934295324919273,0.5309040321990677,0.739104420748014,0.6690827033329252,0.41050310512664584,0.578795855269154,0.47436070409547576,0.3487043764920087,0.4174614540993055,0.3959187256099342,0.5668499346365022,0.5549100253381345,0.5216242687559078,0.41171484374384165,0.4652810094046281,0.5473198866497407,0.5305627997163289,0.577409439627136,0.47122051193871356,0.6074202682901761,0.5122250164372013,0.4250051311625351,0.367896343899705,0.5526117218711214,0.368619578078313,0.4750583374980841,0.3661458888529075],[0.4513896030326954,0.5396169749970299,0.7714807432868199,0.4577502535442696,0.8232151073344692,0.8143229987450803,0.3582267400812375,0.44561761985462117,0.4318970321055729,0.6757745034684391,0.6742208700583464,0.6347810334863222,0.5860031903511433,0.4878301673843377,0.4265575783417311,0.3241586990639479,0.5074149090536989,0.37638698519727765,0.361498265476241,0.2666935541673585,0.2128631866548176,0.255859621581438,0.2645570367349405,0.4080083586391214,0.09585981586460299,0.08875640322399284,0.06311710081026639,0.04643496403415889,0.2625798872238424,0.26144284364876225,0.3065196301769288,0.1574001786411325,0.2321246940699582,0.13486908114978127,0,0.03598959617067585,0.05933202351240661,0.13561156562796345,0.07141791866587238,0.2961708512841262,0.18980585066619257,0.02700971816910829,0.2664637936785171,0.3001918552008446,0.2749647915192828,0.3003192263498951,0.2150601679347451,0.29561253611577376,0.47507286082606087,0.30751676253704424,0.3955399849281342,0.33931711593006336,0.42742195642741054,0.5142065363885822,0.5290154271300649,0.7190568807388186,0.6790101795783504,0.731400862096067,0.6278590924326071,0.527426896242032,0.41947800582895634,0.4251962523130433,0.5708713970285263,0.5359710633610556,0.6118581591371308,0.8328800520048728,0.7795483632535031,0.4814758303595125,0.6909986381608167,0.5989583873354328,0.48094807921774524,0.530682646409294,0.47795148791358966,0.6958374026907312,0.6861625676176029,0.6473233053698028,0.5521409092820816,0.5940923250955157,0.6709727249647096,0.6545399670482257,0.7128913605057761,0.6111875881374833,0.7501272290794283,0.47818531397515895,0.40682639069404025,0.37941130811447676,0.6958693102862638,0.51192551840889,0.6181255573431625,0.5073713463921263],[0.489135896489523,0.575608672788086,0.8160164200072633,0.4913410645743652,0.8677504823012068,0.8582166887531499,0.4026251703298864,0.47587967274347787,0.46383204609351664,0.7122446242363581,0.7089160561192279,0.666099294533401,0.6195697083285695,0.5124785107702656,0.4366553633065836,0.34976445938376804,0.5486929347862289,0.40132830544555886,0.39124125404304594,0.29728901703895416,0.23308002042379944,0.2981925218613058,0.3063635430385066,0.4501173010046066,0.11464715054416066,0.10454034782305306,0.09327138478067755,0.050713996297937325,0.2652813216580026,0.27836320919742,0.3335882420373858,0.1987810591827183,0.2734495398651398,0.17601968767056742,0.03598959617067585,0,0.07291466597179949,0.17073820752417443,0.09148984828060831,0.32582649018836046,0.20263434099531588,0.03345738883707047,0.2875291290655651,0.31926727003102684,0.3177295799064957,0.3432123290651123,0.2529588715089015,0.3329964974796336,0.5061036957317564,0.347037225924728,0.4292899909927049,0.3709068955197512,0.4675052038277519,0.5504371719835026,0.5600620658658891,0.761395476088653,0.7140897957415521,0.7699015781832356,0.664258220625039,0.5665349170713161,0.463757696719464,0.4661606930451713,0.6088303033361482,0.575064952291409,0.6527049477458371,0.8749410348414637,0.8233789109469181,0.5215209249452162,0.7350161160756331,0.6434933214787179,0.5252286970441062,0.5748916251736134,0.5194631033226387,0.7403359388343117,0.7305745876157749,0.6918595679642885,0.5888316800337358,0.6385800938928975,0.715493870312318,0.6990667002510026,0.756967539979911,0.6543768244643131,0.7919843610172368,0.49518176038087724,0.4295978840414034,0.4099697684912171,0.7369895907374744,0.5529720772948908,0.6595818336985564,0.5500827252112421],[0.49167535408075097,0.5829641027655152,0.7742922451187529,0.5059535519981093,0.8250303434797862,0.828298253375779,0.3694826599325298,0.4986639270639101,0.4828041640088715,0.717441081433043,0.7193348381101868,0.6854281778431627,0.6334520683424039,0.5466093165989255,0.49341622745695773,0.38314094508949936,0.5370457679732837,0.43553066711453825,0.41587242676990294,0.32124532656687776,0.27679708734090047,0.2851759946156784,0.29584798388820593,0.4353566537411025,0.16238728145857012,0.15610847908341347,0.12592155133918972,0.11292471724425793,0.3304534857089364,0.32652314547021916,0.3643307128609372,0.19466132736812317,0.2662031661844674,0.17442975460819765,0.05933202351240661,0.07291466597179949,0,0.10060886362897167,0.011844492044327927,0.24637074350592636,0.12356079666771373,0.0317505737948741,0.20610466885393902,0.2381600667328544,0.2619834054181559,0.2875386179151177,0.18432660895422676,0.2618327805103214,0.42689643836916147,0.2799889953888439,0.3525061087107732,0.29252562908913543,0.40051868179308,0.4760072464559193,0.48076438017758577,0.6998285948793186,0.6378742244525648,0.6983516782485952,0.5897222326653335,0.49677714139026347,0.4318236708002589,0.4015441634948175,0.5367805103204023,0.5052404535943913,0.5866761736869601,0.812020294881886,0.7695460048855846,0.4540725177630614,0.6830984813810623,0.601690005327767,0.49259840578196207,0.5258888433135982,0.45611761846347776,0.7014627127581602,0.6941562211732167,0.6504087840635469,0.5939827596610872,0.6006578605965779,0.6720303305252393,0.6560550636523705,0.7254998203728509,0.6312273324369664,0.7760649070401059,0.4148551064624568,0.34813771070003985,0.3307185820548038,0.7248967626525613,0.5423546982049857,0.6463094578438439,0.530831115151627],[0.44040068920873354,0.5348063402471539,0.6739554127189448,0.46955748483384935,0.7238387782648777,0.7367125633418713,0.28189117185625373,0.4734522711171055,0.4531089514885051,0.6637611229370683,0.6720427145978359,0.6502275599224606,0.5922994751616601,0.5354574463786129,0.5187975769211605,0.37861390488746316,0.4674845478083035,0.4290846086177971,0.39716710006003947,0.30871892546142926,0.2960878609222422,0.22733766815461526,0.24013931025077684,0.36547421129045593,0.20637281557669898,0.20598029208834817,0.1657804995853084,0.18548841937406396,0.3773091492434602,0.34733733678900736,0.3574522680557701,0.16461625705440372,0.21828478874448423,0.15384058243443485,0.13561156562796345,0.17073820752417443,0.10060886362897167,0,0.08085646145068438,0.15479796628329923,0.1097967759970986,0.13061376737149788,0.14398254882891026,0.18008485099304108,0.1572223193800358,0.18227642066596844,0.07526058001599963,0.15406534002498934,0.3315787182255093,0.17087135637769124,0.25138559971817204,0.19583999412297837,0.2914880418739132,0.3711844429867347,0.3854366590564489,0.590834148655094,0.5352792448207858,0.5911762222568892,0.4849949293735701,0.3885866299972266,0.3434797885174005,0.2923996271327523,0.42986390894782345,0.39708399462603844,0.4776077616946123,0.7028857847051595,0.6625921220030204,0.3451557638994606,0.5771576655679882,0.5022928691254016,0.4022218360356127,0.4221966265831933,0.347037225924728,0.6035310868893174,0.5981554898147998,0.5509194618258558,0.5428007464858676,0.5042360667791831,0.5710144180375306,0.5554358158952161,0.6333185827879168,0.5476836704145452,0.6979938958954855,0.35548958661158947,0.27416594937500427,0.2364803318355417,0.651405691567099,0.47382225638887465,0.57270859188976,0.45307852235156987],[0.4848326677039436,0.5769681641908199,0.7575838577510444,0.5019847930684724,0.8081147065814286,0.8137150417372456,0.3551807540761379,0.49677714139026347,0.48001739256207765,0.7106213325463178,0.7137631469657195,0.6821249467800667,0.628911100152814,0.5475093870583173,0.5008940302772417,0.38458716368745977,0.526773894904903,0.43689509915845187,0.41485178872150835,0.3207508599077375,0.28189117185625373,0.2759836418110871,0.2871398240545166,0.42474909117186466,0.1706363210529121,0.16546595304088754,0.13216969067051626,0.12629710342916048,0.3411898225435009,0.33234191959011683,0.3652187324967699,0.1891105965555261,0.25861324019649023,0.17007883873393673,0.07141791866587238,0.09148984828060831,0.011844492044327927,0.08085646145068438,0,0.22650844170288953,0.10997469162000993,0.049565053123510255,0.18855547829320984,0.22139701720093544,0.24375636376795673,0.26922860498421564,0.16438896637092656,0.2415587110315228,0.4070089707945521,0.260060533176691,0.33221827332556453,0.27242650009999475,0.38049604220795186,0.4556215634076147,0.46090873454868436,0.6802349352536813,0.617571643855622,0.6779878808111204,0.5693420166540853,0.4765114138012121,0.4175306944994051,0.3817613541495089,0.5164107512030965,0.4849693126567283,0.5666668058828606,0.7922527927865137,0.7509155849976047,0.4339843040487973,0.6647966766900745,0.5851401852787099,0.47798902312357927,0.5081956905478575,0.43643759652680914,0.6853249368412971,0.6784767294027951,0.6338632919735671,0.5874285414154445,0.5848183062534981,0.6551095919436538,0.6392288144444501,0.7107228956073481,0.6182555551301928,0.7643908930948174,0.39889460812492683,0.33018403487601417,0.31082391767698275,0.7141228412606175,0.5322979775009834,0.6354161302163323,0.5189067808170712],[0.5196546193979779,0.6127224884310077,0.6287171497063666,0.5664787330210667,0.6734798007160914,0.7189120692117433,0.3118208073523362,0.5827978419612974,0.558696726127112,0.7277468717153425,0.7453630130790165,0.7406978750899376,0.6772017206827438,0.6561248102682249,0.6669316516477815,0.5115718349030807,0.5147141669232279,0.5580822415563151,0.5171594684033821,0.4399749507276022,0.44750352962564827,0.3229489649153033,0.33617740603999074,0.4214491675809042,0.36838113874697703,0.3687164010102174,0.3282626501881711,0.3480668141636552,0.536870660886404,0.4974605260597914,0.4897874780729909,0.30030103368751004,0.32767406668149907,0.2976011880702715,0.2961708512841262,0.32582649018836046,0.24637074350592636,0.15479796628329923,0.22650844170288953,0,0.151118815126526,0.283891472911185,0.07024997259198158,0.08230595781997957,0.16402305059980893,0.17403780174045597,0.10259831095549128,0.07706808706441298,0.17197970484331898,0.11064834906378071,0.10376756274221129,0.04009041329530035,0.19296057952496806,0.2311948590682668,0.22585613288137862,0.49053110108441855,0.38634480476710253,0.4576658951669227,0.3424447492374251,0.2678903119183361,0.361498265476241,0.2050155605316978,0.2980001198161025,0.2756378402725069,0.3668201068224173,0.5949239067577512,0.5834009084643276,0.23773265144940897,0.5079509732066787,0.46906362401040524,0.40754610251866596,0.37552844623572135,0.2570787498658899,0.5703232269242364,0.5719758635184067,0.5144348968041957,0.6159092048830506,0.48190277792608704,0.5272538890662571,0.514133977494757,0.617661379693167,0.5596542917779151,0.7155869905093938,0.21220237395133695,0.12000394195177447,0.07581189468377632,0.680567284545877,0.5225058469555506,0.6053757997777821,0.48493800153029715],[0.5586249054494009,0.6530914670496368,0.7609720839614038,0.5874285414154445,0.8087405799081772,0.8356584619697089,0.39011528679226093,0.5897081445340343,0.5700829357429382,0.781487055628889,0.7902927493328021,0.7682251707598178,0.7105978928799015,0.6485023686505224,0.615855213839965,0.4885088963245397,0.5823439495122378,0.540055007008354,0.5115880394029811,0.42057603214641354,0.39435979118024733,0.34562409174095166,0.35846412152708684,0.48093946986528663,0.2877662591457767,0.2833241074158421,0.24807332425651415,0.24445691351782806,0.45937419016433134,0.44554338169378976,0.46797709728638454,0.27866660534075666,0.3363362923056436,0.2646650306467045,0.18980585066619257,0.20263434099531588,0.12356079666771373,0.1097967759970986,0.10997469162000993,0.151118815126526,0,0.16345230098664293,0.08585467720268082,0.11162253581302381,0.24982993258010122,0.2715251401610995,0.15383193169892764,0.20440296299448565,0.3229489649153033,0.2338693867793134,0.2633197739430778,0.19953852220019988,0.34290469891542713,0.39072792535421436,0.37508564067288064,0.6453584880116732,0.5425076697177162,0.6172305303165229,0.501100793338696,0.4260698021776232,0.4498293205336177,0.3506650253968026,0.4576327501993022,0.43401922011653277,0.5236394212861912,0.7521593743898555,0.7314293378634495,0.39206612086501547,0.6511395709906951,0.5930191244301105,0.5058006333471936,0.5056230814540442,0.40543072124260976,0.6953586151955606,0.6928516353912246,0.6408142510670894,0.660915582126405,0.5994668797999861,0.657847131901353,0.6432325912209504,0.7323722160940133,0.655058790257659,0.8078755789108419,0.2842611101843818,0.2253461892060134,0.23017903776011034,0.7638091081192242,0.5889727530494286,0.6854423469780605,0.5646975401103848],[0.4829099326043109,0.572125869976208,0.7889199663136339,0.49145345573167293,0.8402468694192674,0.8366462821756738,0.37859576299876574,0.4803479316974411,0.4661932426168972,0.7079050590096869,0.707293065741168,0.6691324537280946,0.6196144351332,0.5233225809403989,0.4605615041509007,0.35963347207167884,0.5354677751136458,0.41188527763098354,0.3964081307403119,0.3015402334243638,0.24825390195029104,0.28305446295481196,0.2925349604696988,0.4350337573390803,0.1306642298840879,0.12287850678303498,0.09864802002909819,0.07522705039711806,0.2941310369233907,0.29653021530812834,0.3418799870709926,0.18675123586820033,0.26093768854579436,0.1647784250578019,0.02700971816910829,0.03345738883707047,0.0317505737948741,0.13061376737149788,0.049565053123510255,0.283891472911185,0.16345230098664293,0,0.24619434528912387,0.27843174604067084,0.2835454148651184,0.3091702218488893,0.2137749155200322,0.2932200269294456,0.46423333067256584,0.30868793059904903,0.38793879769184436,0.3291623206104533,0.4293894384538672,0.509818767280656,0.5181818830619425,0.7256528990140777,0.6729770622123624,0.7303293768554391,0.6236468875111776,0.527505517408912,0.44052270151149236,0.42893050856044457,0.5690210619002098,0.536017497288035,0.6151236249337495,0.8387096607816911,0.7909202752168824,0.48329565215423187,0.703312151543146,0.616154355482272,0.5018527035479271,0.5442510941651926,0.48279558717893156,0.7144609850240882,0.7058178167163958,0.664748692276015,0.5842332701702859,0.6129982775384263,0.687503909235956,0.6712600110598781,0.7345531201907004,0.6357650575694215,0.7770990497503093,0.45512800722540636,0.38808049074787077,0.3680791475426589,0.7239193307903492,0.5402700525773748,0.6457987248568489,0.5331284735729983],[0.5641557247136528,0.658588721431397,0.7057607886119458,0.603696306176654,0.7511097723972321,0.7924825550416869,0.36963126806742985,0.6139558075005903,0.5916281162283863,0.7797069844325997,0.7938720014232227,0.7819492175581367,0.7205766286250384,0.6812844496510769,0.6713261316754796,0.5281550112552131,0.5708107842563435,0.5775604521484251,0.5419746351054324,0.45726799989947553,0.44858647892552034,0.3570989945301818,0.3704994582857513,0.4733502567422766,0.35405903117945453,0.3519220380003869,0.3131510103247564,0.3211558660239008,0.5266269254194538,0.49985895364713673,0.5066847486342045,0.3130724015407709,0.355562895844783,0.30483873989925914,0.2664637936785171,0.2875291290655651,0.20610466885393902,0.14398254882891026,0.18855547829320984,0.07024997259198158,0.08585467720268082,0.24619434528912387,0,0.02755858174935558,0.2203561269742091,0.23598679959561886,0.1344767516494217,0.14708231245300188,0.22950138234233117,0.1807390492365048,0.1768928853651305,0.11444173221763285,0.27173070486160406,0.30292787638417906,0.2810968832355347,0.5685173870265358,0.45003460172214294,0.5288272471872949,0.4108247913082195,0.34451975086445247,0.42397031849037287,0.2834107259611997,0.3714987517492733,0.3520389278279281,0.44415536804736355,0.6716979403850666,0.6621964175206416,0.31619758571381534,0.5865015073103209,0.5438901356147658,0.47409301059266207,0.45153618070743906,0.33582678239911656,0.6456956715707373,0.6463094578438439,0.5899968849476582,0.6637130646074779,0.5550471270150624,0.6037995455937735,0.5903253631685551,0.6904462023525496,0.6262014663088961,0.781702172304466,0.20485105660228153,0.13371847139347592,0.13919200910104446,0.7434320631461346,0.5782119965789232,0.6667548616032404,0.5454263887614678],[0.5956288049787948,0.68981287527299,0.7182687575868143,0.6368477100751943,0.7623436137322221,0.8097488781833341,0.3964081307403119,0.6481644871291583,0.6255349871387975,0.8092079527601096,0.8244639286889099,0.8144066430574157,0.7524916926818154,0.716331521435364,0.7074264934710808,0.5638613114667834,0.5986368930265954,0.613086413821753,0.5769537691751475,0.49286742584261245,0.4846760488216608,0.3903759492069068,0.4037851138533284,0.5025265528956743,0.3894593544845723,0.387087573687654,0.34857852846502463,0.3550648742495575,0.5621334892394109,0.5359555845054446,0.5423546982049857,0.3487908713006468,0.3898438759226788,0.3408201051079825,0.3001918552008446,0.31926727003102684,0.2381600667328544,0.18008485099304108,0.22139701720093544,0.08230595781997957,0.11162253581302381,0.27843174604067084,0.02755858174935558,0,0.24694319659387912,0.2604106940312101,0.16616685639559328,0.1665202677735919,0.21443736770344515,0.20043444367790475,0.17457556177454023,0.11697411262522062,0.2794432087529935,0.29636440761877747,0.2636141331543598,0.5695485977470001,0.4356445298637741,0.5199710007739091,0.4001854477105607,0.3435954915566929,0.4487984610015357,0.29325261035347067,0.3660484015121455,0.35066502539680267,0.4439815669950796,0.6696628975321501,0.6676695104453721,0.3200163154937903,0.594865710064836,0.5597729471441263,0.4967743615177233,0.4659179804163714,0.3434438729444313,0.6608589256572441,0.6627490829455743,0.6049248733617459,0.6944060568954156,0.572754507779661,0.6172507330074631,0.6043475701574083,0.7085086938878993,0.6490024564844238,0.8048416948286287,0.1697955058379523,0.10548048821307386,0.13193990053792976,0.768378871496196,0.6061966881823301,0.6923948575458879,0.5713730273888886],[0.3485706614908194,0.44086040885278377,0.5087092201088348,0.39955602806903284,0.5582904480295836,0.5774286179775043,0.1409594735842268,0.42108312457813507,0.395585174477134,0.5552988087298184,0.5728632414756053,0.5703450666311949,0.5060736704894574,0.4997705295052986,0.5395939109841998,0.3703437757611956,0.343256254269865,0.41100228321275045,0.36409329891167835,0.30121389283147965,0.3370849243642007,0.16611056592452422,0.17817621960084545,0.24888219799745323,0.298924379080285,0.3045831364766519,0.2676157712037609,0.30984155505923777,0.44203727377264496,0.3809254831947415,0.3490227313556068,0.18582838163226287,0.18026349349225293,0.1953445438653846,0.2749647915192828,0.3177295799064957,0.2619834054181559,0.1572223193800358,0.24375636376795673,0.16402305059980893,0.24982993258010122,0.2835454148651184,0.2203561269742091,0.24694319659387912,0,0.01709339804827054,0.08746294325409489,0.08418824222577306,0.2697136611813817,0.061230096015053574,0.18263679070407798,0.16591743214084997,0.1550042313327137,0.26401127150820924,0.3163013848645591,0.4356445298637741,0.4284518101481535,0.4606094132777717,0.37090689551975126,0.2573219046928088,0.1956130620046897,0.14734385126543226,0.3062832395201635,0.2656965351592242,0.3320698385605835,0.5497003744946846,0.49926179188790587,0.2072598923055835,0.4125696591427964,0.337803548868775,0.2485819001267744,0.25644338270924216,0.19675205657044278,0.4396585156166672,0.43571093632400376,0.38624518890453025,0.443580949643052,0.3419641582567516,0.40562070007333084,0.3902104130921124,0.47408136837658515,0.39962142280439966,0.5543288423837186,0.37801840690741967,0.28251442462272214,0.20005768257078696,0.5146792663100401,0.3508878602629794,0.437855901876207,0.3165261693216781],[0.345036598598895,0.4357868172688776,0.4844481507176386,0.39963863020399115,0.5337608722175884,0.5556947930620042,0.12952944938169692,0.42407423584599185,0.39799722004149873,0.5463790081274978,0.5657747456951564,0.5670452077541285,0.5019957989859095,0.5047371374819181,0.5525115820673537,0.3810264593358308,0.33235428174998505,0.41967159383717023,0.37110675014854194,0.31327761742283133,0.35454295736596914,0.1746369195450001,0.18582838163226287,0.2414744484394107,0.3216327088258326,0.3276615324331848,0.29129133768472065,0.33443708622647345,0.46090873454868436,0.39693505479319147,0.36002624244196246,0.20512077657924646,0.19203828062091208,0.2161881101902239,0.3003192263498951,0.3432123290651123,0.2875386179151177,0.18227642066596844,0.26922860498421564,0.17403780174045597,0.2715251401610995,0.3091702218488893,0.23598679959561886,0.2604106940312101,0.01709339804827054,0,0.10951155330880559,0.08983319479423092,0.26206647292742674,0.06025698440600412,0.17704432645561285,0.16912473254095073,0.13490825508664242,0.24785427169992277,0.30628770136409256,0.4104930484542918,0.41057349507652724,0.4387581168016046,0.35221029773219853,0.2365720421525398,0.17985385372885726,0.1252932894519969,0.2864644465978562,0.24483418326936165,0.30835565254737896,0.5246810243119032,0.473635842602709,0.18580669968079386,0.38703786241383825,0.3141450641092893,0.22994354992298444,0.23144082599520915,0.17291105962586165,0.41623634604788795,0.4129497612370353,0.36242714700015743,0.4373867847527523,0.31943006530529783,0.38127878525712916,0.366014649982558,0.45250303399026354,0.3818261313884654,0.5371925056265736,0.382009608553601,0.28645492319713955,0.19981511925433515,0.4994609238034594,0.3402245199092781,0.42348287269340196,0.3026436203839126],[0.42121715863824166,0.5155939672350504,0.6015795019096426,0.4624531916374263,0.6503341683950354,0.673323249780836,0.23158711526513048,0.47548804355417157,0.45219520318124895,0.6371153699946838,0.6508669522244949,0.639694884501034,0.5778647560009489,0.5467029311880512,0.5566002785759587,0.40049120884146705,0.4300080718571133,0.4473217608138374,0.4074245485296438,0.32888767580751105,0.3387513124780367,0.21636305946766443,0.22975499210415218,0.3312316176509714,0.2691122677764108,0.2713294628908915,0.23095450483973423,0.26068736433255424,0.43235924624381544,0.38803444605759235,0.3787118564002876,0.18958618715179615,0.21828478874448423,0.18825591989873447,0.2150601679347451,0.2529588715089015,0.18432660895422676,0.07526058001599963,0.16438896637092656,0.10259831095549128,0.15383193169892764,0.2137749155200322,0.1344767516494217,0.16616685639559328,0.08746294325409489,0.10951155330880559,0,0.07204784661388346,0.2621235670520892,0.08712583485162606,0.1769610491551147,0.1303712921478403,0.20768257749011274,0.290939758861389,0.314953740387706,0.5077333493015826,0.45646816715883143,0.5084022505300587,0.40441489089955723,0.3051971303173389,0.28945388458313864,0.20894570429939185,0.3474636235718642,0.31371381214247,0.3938155301469928,0.6194019544381248,0.5824580495186508,0.2613595842087521,0.4984838760461499,0.4320118339720472,0.3440738591797642,0.347179415263709,0.26382051106623655,0.5341958658990967,0.5309977682086758,0.48015825831091735,0.5207014106579192,0.437424584268285,0.49835087424261243,0.48332706782743484,0.5700125285182518,0.49436680976658937,0.6483334496144891,0.3223381939424231,0.23114211903065052,0.1717461144018964,0.6066809324130292,0.4371945876533509,0.5290154271300649,0.40763049412313235],[0.44103854101245143,0.5328587020860659,0.5521684677158364,0.49215252335776055,0.5986206981634705,0.6368564162090536,0.22788490920128726,0.5126375559354464,0.48745647057907726,0.6447459585115536,0.6637945527924896,0.6629248356420779,0.5984494688970277,0.5898842223372307,0.6184751453208087,0.454303232384967,0.4306226352334481,0.4975549050173943,0.45273453360652327,0.3835710718461157,0.406447449962477,0.25494957045761957,0.26761068454249254,0.33945034990983836,0.3464678990769575,0.3494624593936267,0.3094309734396879,0.3410451970689235,0.5050490327681859,0.4537809241999449,0.432645894219846,0.2538383529836503,0.2650811793332858,0.2570364393449318,0.29561253611577376,0.3329964974796336,0.2618327805103214,0.15406534002498934,0.2415587110315228,0.07706808706441298,0.20440296299448565,0.2932200269294456,0.14708231245300188,0.1665202677735919,0.08418824222577306,0.08983319479423092,0.07204784661388346,0,0.189557825730784,0.02539266224413567,0.10168456620852043,0.07331032058436211,0.13282701477453368,0.21041335052207286,0.2405287598746425,0.435963822432628,0.3761935245759506,0.42856430319278954,0.3238249818698819,0.2264068246652631,0.27608730035045936,0.138276382722996,0.26730531321772416,0.23486403711058962,0.3181813284140746,0.5456723010105944,0.518565776642651,0.18508983330218157,0.4383936778002974,0.38850172860579024,0.3220323852883959,0.2970684690343832,0.19343405961592167,0.49049732407713087,0.49074496906757736,0.4349514128130962,0.5350312150360729,0.3994320935087503,0.4496423427491473,0.43579314009602427,0.5348968183036813,0.4741977779026091,0.6301087590687993,0.2853576738445472,0.18981293253597328,0.1094282334651526,0.5949797703033916,0.4385288062188961,0.5199391053563791,0.399724656323353],[0.6057234964634962,0.6909986381608167,0.5724475273693189,0.6661992316013272,0.6081496065469004,0.6883792343710385,0.3817181633502575,0.6936522821228462,0.6671894741702932,0.7854670103821989,0.8120271424697284,0.8254481647871352,0.7590126875714046,0.7752194047076547,0.8154710852403877,0.648386909703339,0.5700926464119568,0.689182999912311,0.6415082843810843,0.5786427681729958,0.6045400649597678,0.4440560613326155,0.4557728558616268,0.49578096785155457,0.539555468806087,0.5413210273844437,0.5007864803141099,0.5255785972883292,0.7021172844491402,0.6518121166758005,0.6269600905134814,0.4519268263984757,0.45824404646242706,0.4548734540108002,0.47507286082606087,0.5061036957317564,0.42689643836916147,0.3315787182255093,0.4070089707945521,0.17197970484331898,0.3229489649153033,0.46423333067256584,0.22950138234233117,0.21443736770344515,0.2697136611813817,0.26206647292742674,0.2621235670520892,0.189557825730784,0,0.20064943108660035,0.07967016615641297,0.12723143920432714,0.1624940818316784,0.0933816969298296,0.045429352853915764,0.37651833697960274,0.2127108665