"trial_id","rt","stimulus","response","trial_type","trial_index","plugin_version","time_elapsed","participant_number","success","raw_payload","placements","dissimilarity_vector","n_words","trial_category","distance_matrix","value"
"consent_form","2252","
    <div style=""max-width:800px; margin:0 auto; text-align:left; font-size: 16px; padding: 10px 0;"">
      <h1>Informed Consent Form</h1>
      <p>You are being invited to participate in a research study titled <strong>""Reproducibility of Psychological Science and Instruction.""</strong> This study is being done by Dr. Bria Long from UC San Diego and associated graduate students in the Experimental Methods course. You were selected to participate in this study because you are an adult in the U.S. and have been a represented population in previous psychology studies.</p>
      
      <p>The purpose of this study is to better understand how well previously published studies in the psychological field replicate online and with different populations. Your participation in this research should last approximately <strong>5-30 minutes</strong>. If you agree to take part in this study, you may be asked to view a set of stimuli, including pictures, sounds, written text, or videos and then giving some responses via key-presses, verbally, or with paper-and-pencil. We may also observe your choices or preferences among an array of stimuli. These stimuli will be taken directly from or closely adapted from studies that already exist in the published psychological literature. Stimuli will include, e.g., pictures of objects and human faces, audio and video clips, short text passages, etc. None of the stimuli will be disturbing, threatening, or offensive. The online and in-person experiments described in this protocol will take no more than 30 minutes. An example game you might play would be to click on an image on the screen that matches a word you hear being said out loud. Your total expected time commitment for this study is between 5-30 minutes, and is specified in the study description.</p>
      
      <p>Your participation in this study is completely voluntary and you can withdraw at any time. Choosing not to participate or withdrawing will result in no penalty or loss of benefits to which you are entitled. You are free to skip any question that you choose.</p>
      
      <p>We will not be asking for any personally identifying information, and we will handle responses as confidentially as possible. Your SONA or Prolific IDs will never be tied to your responses on this survey. However, we cannot guarantee the confidentiality of information transmitted over the Internet. To minimize this risk, data containing anything that might be personally identifying (e.g. Prolific IDs or IP addresses) will be encrypted on transfer and storage and will only be accessible to qualified lab personnel. We will be keeping data collected as part of this experiment indefinitely. This anonymized data (containing neither Prolific IDs nor IP addresses) may be shared with the scientific community or with other participants to be used as stimuli in future studies.</p>
      
      <p>If you have questions about this project or if you have a research-related problem, you may contact the researcher(s), <strong>Dr. Bria Long, <a href=""mailto:brlong@ucsd.edu"">brlong@ucsd.edu</a></strong>. If you have any questions concerning your rights as a research subject, you may contact the UC San Diego Office of IRB Administration at <a href=""mailto:irb@ucsd.edu"">irb@ucsd.edu</a> or 858-246-4777.</p>
      
      <h3 style=""margin-top: 25px;"">Consent Statement</h3>
      <p style=""font-weight: bold;"">By participating in this research you are indicating that you are at least 18 years old, have read this consent form, and agree to participate in this research study. Please keep this consent form for your records.</p>
    </div>
  ","0","html-button-response","0","2.1.0","2256","4kl6enlprv_ewlgji","","","","","","","",""
"","46332","","{""participant_date"":""11/25/2025"",""participant_time"":""10:30""}","survey-html-form","1","2.1.0","48591","4kl6enlprv_ewlgji","","","","","","","",""
"","7658","
    <div style=""display:flex; align-items:center; justify-content:center; height:100vh; font-family:sans-serif;"">
      <div style=""max-width:900px; margin:0 auto; text-align:center;"">
        <h1 style= ""font-size: 24px;"">Welcome! Thank you for participating in the study.</h1>
        <h2 style= ""font-size: 22px;"">The study will be in Madarin Chinese.</h2>
        <h2 style= ""font-size: 22px;"">Please use desktop computers or laptops for the study. Tablets and phones are not allowed.</h2>
        <p style=""font-size:16px; margin-top:30px;""><em>Press any key to continue.</em></p>
      </div>
    </div>
  "," ","html-keyboard-response","2","2.1.0","56252","4kl6enlprv_ewlgji","","","","","","","",""
"","728","
    <div style=""display:flex; align-items:center; justify-content:center; height:100vh; font-family:sans-serif;"">
      <div style=""max-width:900px; margin:0 auto; text-align:center;"">
        <p style=""font-size:18px; line-height:1.6;"">
          In this task, you will be presented with <strong>90 words</strong> arranged <strong>outside a circle</strong>.<br>
          Your job is to <strong>drag these words into the circle</strong> and <strong>rearrange them</strong> based on their <strong>meaning similarity</strong>.<br><br>
          Words that are <strong>similar in meaning</strong> should be placed <strong>closer together</strong>.<br>
          Words that are <strong>different in meaning</strong> should be placed <strong>farther apart</strong>.<br><br>
          You can place the words <strong>anywhere inside the circle</strong>. There is no single correct answer — 
          we are interested in <strong>your personal judgment</strong> of how these words relate to each other.<br><br>
          <strong>You must move all words into the circle before you can finish.</strong><br>
          After the initial arrangement, you will arrange words from specific categories.
        </p>
        <p style=""font-size:16px; margin-top:30px;""><em>Press any key to continue.</em></p>
      </div>
    </div>
  "," ","html-keyboard-response","3","2.1.0","56982","4kl6enlprv_ewlgji","","","","","","","",""
"","1287","","","fullscreen","4","2.1.0","59275","4kl6enlprv_ewlgji","true","{""placements"":[{""word"":""骄傲"",""x"":553,""y"":417,""cx"":572,""cy"":434,""angle_rad"":0.362,""angle_deg"":20.7},{""word"":""冰箱"",""x"":517,""y"":411,""cx"":536,""cy"":428,""angle_rad"":0.397,""angle_deg"":22.8},{""word"":""兔子"",""x"":502,""y"":324,""cx"":521,""cy"":341,""angle_rad"":-0.053,""angle_deg"":357},{""word"":""反感"",""x"":602,""y"":438,""cx"":621,""cy"":455,""angle_rad"":0.37,""angle_deg"":21.2},{""word"":""协议"",""x"":548,""y"":318,""cx"":567,""cy"":335,""angle_rad"":-0.069,""angle_deg"":356},{""word"":""嘴唇"",""x"":477,""y"":468,""cx"":496,""cy"":485,""angle_rad"":0.746,""angle_deg"":42.8},{""word"":""剪刀"",""x"":568,""y"":445,""cx"":587,""cy"":462,""angle_rad"":0.441,""angle_deg"":25.3},{""word"":""长颈鹿"",""x"":548,""y"":368,""cx"":574,""cy"":385,""angle_rad"":0.155,""angle_deg"":8.9},{""word"":""制度"",""x"":485,""y"":432,""cx"":504,""cy"":449,""angle_rad"":0.571,""angle_deg"":32.7},{""word"":""过失"",""x"":476,""y"":363,""cx"":495,""cy"":380,""angle_rad"":0.204,""angle_deg"":11.7},{""word"":""友情"",""x"":630,""y"":361,""cx"":649,""cy"":378,""angle_rad"":0.093,""angle_deg"":5.3},{""word"":""方法"",""x"":630,""y"":404,""cx"":649,""cy"":421,""angle_rad"":0.233,""angle_deg"":13.4},{""word"":""蚂蚁"",""x"":525,""y"":444,""cx"":544,""cy"":461,""angle_rad"":0.52,""angle_deg"":29.8},{""word"":""沮丧"",""x"":442,""y"":433,""cx"":461,""cy"":450,""angle_rad"":0.733,""angle_deg"":42},{""word"":""沙发"",""x"":514,""y"":360,""cx"":533,""cy"":377,""angle_rad"":0.146,""angle_deg"":8.4},{""word"":""暴力"",""x"":385,""y"":469,""cx"":404,""cy"":486,""angle_rad"":1.193,""angle_deg"":68.3},{""word"":""筷子"",""x"":433,""y"":367,""cx"":452,""cy"":384,""angle_rad"":0.322,""angle_deg"":18.4},{""word"":""概念"",""x"":596,""y"":325,""cx"":615,""cy"":342,""angle_rad"":-0.03,""angle_deg"":358.3},{""word"":""麻雀"",""x"":434,""y"":469,""cx"":453,""cy"":486,""angle_rad"":0.923,""angle_deg"":52.9},{""word"":""椅子"",""x"":324,""y"":354,""cx"":343,""cy"":371,""angle_rad"":1.893,""angle_deg"":108.4},{""word"":""买卖"",""x"":390,""y"":369,""cx"":409,""cy"":386,""angle_rad"":0.548,""angle_deg"":31.4},{""word"":""魔力"",""x"":377,""y"":333,""cx"":396,""cy"":350,""angle_rad"":0,""angle_deg"":0},{""word"":""结果"",""x"":394,""y"":450,""cx"":413,""cy"":467,""angle_rad"":1.077,""angle_deg"":61.7},{""word"":""敌意"",""x"":361,""y"":453,""cx"":380,""cy"":470,""angle_rad"":1.326,""angle_deg"":76},{""word"":""纠纷"",""x"":302,""y"":441,""cx"":321,""cy"":458,""angle_rad"":1.833,""angle_deg"":105},{""word"":""关系"",""x"":294,""y"":385,""cx"":313,""cy"":402,""angle_rad"":2.189,""angle_deg"":125.4},{""word"":""铅笔"",""x"":354,""y"":385,""cx"":373,""cy"":402,""angle_rad"":1.154,""angle_deg"":66.1},{""word"":""愤怒"",""x"":321,""y"":378,""cx"":340,""cy"":395,""angle_rad"":1.789,""angle_deg"":102.5},{""word"":""团队"",""x"":322,""y"":429,""cx"":341,""cy"":446,""angle_rad"":1.664,""angle_deg"":95.4},{""word"":""洗衣机"",""x"":211,""y"":393,""cx"":237,""cy"":410,""angle_rad"":2.653,""angle_deg"":152},{""word"":""大腿"",""x"":251,""y"":396,""cx"":270,""cy"":413,""angle_rad"":2.475,""angle_deg"":141.8},{""word"":""慈善"",""x"":125,""y"":402,""cx"":144,""cy"":419,""angle_rad"":2.818,""angle_deg"":161.5},{""word"":""手指"",""x"":176,""y"":393,""cx"":195,""cy"":410,""angle_rad"":2.772,""angle_deg"":158.8},{""word"":""性质"",""x"":214,""y"":409,""cx"":233,""cy"":426,""angle_rad"":2.566,""angle_deg"":147},{""word"":""猫"",""x"":266,""y"":412,""cx"":278,""cy"":429,""angle_rad"":2.31,""angle_deg"":132.3},{""word"":""眼睛"",""x"":77,""y"":401,""cx"":96,""cy"":418,""angle_rad"":2.88,""angle_deg"":165},{""word"":""床"",""x"":170,""y"":387,""cx"":182,""cy"":404,""angle_rad"":2.831,""angle_deg"":162.2},{""word"":""鼠标"",""x"":256,""y"":340,""cx"":275,""cy"":357,""angle_rad"":3.049,""angle_deg"":174.7},{""word"":""微波炉"",""x"":279,""y"":344,""cx"":305,""cy"":361,""angle_rad"":2.902,""angle_deg"":166.3},{""word"":""原因"",""x"":213,""y"":343,""cx"":232,""cy"":360,""angle_rad"":3.057,""angle_deg"":175.2},{""word"":""锤子"",""x"":178,""y"":340,""cx"":197,""cy"":357,""angle_rad"":3.096,""angle_deg"":177.4},{""word"":""勺子"",""x"":128,""y"":343,""cx"":147,""cy"":360,""angle_rad"":3.092,""angle_deg"":177.2},{""word"":""缘分"",""x"":78,""y"":348,""cx"":97,""cy"":365,""angle_rad"":3.082,""angle_deg"":176.6},{""word"":""胳膊"",""x"":132,""y"":368,""cx"":151,""cy"":385,""angle_rad"":2.967,""angle_deg"":170},{""word"":""老鼠"",""x"":42,""y"":346,""cx"":61,""cy"":363,""angle_rad"":3.097,""angle_deg"":177.4},{""word"":""兴奋"",""x"":189,""y"":265,""cx"":208,""cy"":282,""angle_rad"":-2.695,""angle_deg"":205.6},{""word"":""耳朵"",""x"":423,""y"":336,""cx"":442,""cy"":353,""angle_rad"":0.033,""angle_deg"":1.9},{""word"":""社会"",""x"":116,""y"":276,""cx"":135,""cy"":293,""angle_rad"":-2.882,""angle_deg"":194.8},{""word"":""牙刷"",""x"":75,""y"":258,""cx"":94,""cy"":275,""angle_rad"":-2.857,""angle_deg"":196.3},{""word"":""过程"",""x"":134,""y"":266,""cx"":153,""cy"":283,""angle_rad"":-2.814,""angle_deg"":198.8},{""word"":""光彩"",""x"":94,""y"":226,""cx"":113,""cy"":243,""angle_rad"":-2.718,""angle_deg"":204.3},{""word"":""空调"",""x"":88,""y"":183,""cx"":107,""cy"":200,""angle_rad"":-2.589,""angle_deg"":211.7},{""word"":""乌龟"",""x"":309,""y"":212,""cx"":328,""cy"":229,""angle_rad"":-1.751,""angle_deg"":259.7},{""word"":""地位"",""x"":193,""y"":116,""cx"":212,""cy"":133,""angle_rad"":-2.137,""angle_deg"":237.5},{""word"":""创伤"",""x"":225,""y"":159,""cx"":244,""cy"":176,""angle_rad"":-2.118,""angle_deg"":238.7},{""word"":""死亡"",""x"":390,""y"":123,""cx"":409,""cy"":140,""angle_rad"":-1.297,""angle_deg"":285.7},{""word"":""快乐"",""x"":129,""y"":205,""cx"":148,""cy"":222,""angle_rad"":-2.577,""angle_deg"":212.4},{""word"":""身份"",""x"":135,""y"":175,""cx"":154,""cy"":192,""angle_rad"":-2.463,""angle_deg"":218.9},{""word"":""婚姻"",""x"":267,""y"":155,""cx"":286,""cy"":172,""angle_rad"":-1.916,""angle_deg"":250.2},{""word"":""错误"",""x"":138,""y"":121,""cx"":157,""cy"":138,""angle_rad"":-2.309,""angle_deg"":227.7},{""word"":""脚踝"",""x"":359,""y"":185,""cx"":378,""cy"":202,""angle_rad"":-1.384,""angle_deg"":280.7},{""word"":""老虎"",""x"":186,""y"":207,""cx"":205,""cy"":224,""angle_rad"":-2.426,""angle_deg"":221},{""word"":""冷漠"",""x"":304,""y"":152,""cx"":323,""cy"":169,""angle_rad"":-1.719,""angle_deg"":261.5},{""word"":""疾病"",""x"":256,""y"":121,""cx"":275,""cy"":138,""angle_rad"":-1.911,""angle_deg"":250.5},{""word"":""扫帚"",""x"":292,""y"":113,""cx"":311,""cy"":130,""angle_rad"":-1.746,""angle_deg"":259.9},{""word"":""难过"",""x"":184,""y"":144,""cx"":203,""cy"":161,""angle_rad"":-2.232,""angle_deg"":232.1},{""word"":""钥匙"",""x"":281,""y"":323,""cx"":300,""cy"":340,""angle_rad"":-2.944,""angle_deg"":191.3},{""word"":""天堂"",""x"":242,""y"":199,""cx"":261,""cy"":216,""angle_rad"":-2.157,""angle_deg"":236.4},{""word"":""义务"",""x"":327,""y"":121,""cx"":346,""cy"":138,""angle_rad"":-1.59,""angle_deg"":268.9},{""word"":""数据"",""x"":371,""y"":221,""cx"":390,""cy"":238,""angle_rad"":-1.228,""angle_deg"":289.7},{""word"":""爱心"",""x"":443,""y"":140,""cx"":462,""cy"":157,""angle_rad"":-1.045,""angle_deg"":300.1},{""word"":""内容"",""x"":339,""y"":157,""cx"":358,""cy"":174,""angle_rad"":-1.525,""angle_deg"":272.6},{""word"":""现象"",""x"":529,""y"":148,""cx"":548,""cy"":165,""angle_rad"":-0.751,""angle_deg"":316.9},{""word"":""柜子"",""x"":483,""y"":139,""cx"":502,""cy"":156,""angle_rad"":-0.906,""angle_deg"":308.1},{""word"":""奇迹"",""x"":388,""y"":155,""cx"":407,""cy"":172,""angle_rad"":-1.261,""angle_deg"":287.8},{""word"":""恐惧"",""x"":337,""y"":337,""cx"":356,""cy"":354,""angle_rad"":0.588,""angle_deg"":33.7},{""word"":""膝盖"",""x"":522,""y"":112,""cx"":541,""cy"":129,""angle_rad"":-0.858,""angle_deg"":310.8},{""word"":""舒心"",""x"":477,""y"":102,""cx"":496,""cy"":119,""angle_rad"":-1.007,""angle_deg"":302.3},{""word"":""债务"",""x"":415,""y"":111,""cx"":434,""cy"":128,""angle_rad"":-1.209,""angle_deg"":290.7},{""word"":""大象"",""x"":451,""y"":100,""cx"":470,""cy"":117,""angle_rad"":-1.095,""angle_deg"":297.2},{""word"":""作用"",""x"":301,""y"":180,""cx"":320,""cy"":197,""angle_rad"":-1.764,""angle_deg"":258.9},{""word"":""纪律"",""x"":451,""y"":176,""cx"":470,""cy"":193,""angle_rad"":-0.918,""angle_deg"":307.4},{""word"":""电视"",""x"":412,""y"":189,""cx"":431,""cy"":206,""angle_rad"":-1.058,""angle_deg"":299.4},{""word"":""肩膀"",""x"":416,""y"":148,""cx"":435,""cy"":165,""angle_rad"":-1.14,""angle_deg"":294.7},{""word"":""鼻子"",""x"":478,""y"":176,""cx"":497,""cy"":193,""angle_rad"":-0.818,""angle_deg"":313.1},{""word"":""斧头"",""x"":452,""y"":382,""cx"":471,""cy"":399,""angle_rad"":0.385,""angle_deg"":22},{""word"":""风景"",""x"":375,""y"":414,""cx"":394,""cy"":431,""angle_rad"":1.073,""angle_deg"":61.5},{""word"":""熊猫"",""x"":411,""y"":402,""cx"":430,""cy"":419,""angle_rad"":0.712,""angle_deg"":40.8},{""word"":""骗局"",""x"":585,""y"":410,""cx"":604,""cy"":427,""angle_rad"":0.294,""angle_deg"":16.9},{""word"":""桌子"",""x"":464,""y"":329,""cx"":483,""cy"":346,""angle_rad"":-0.03,""angle_deg"":358.3}],""n_words"":90,""words"":[""骄傲"",""冰箱"",""兔子"",""反感"",""协议"",""嘴唇"",""剪刀"",""长颈鹿"",""制度"",""过失"",""友情"",""方法"",""蚂蚁"",""沮丧"",""沙发"",""暴力"",""筷子"",""概念"",""麻雀"",""椅子"",""买卖"",""魔力"",""结果"",""敌意"",""纠纷"",""关系"",""铅笔"",""愤怒"",""团队"",""洗衣机"",""大腿"",""慈善"",""手指"",""性质"",""猫"",""眼睛"",""床"",""鼠标"",""微波炉"",""原因"",""锤子"",""勺子"",""缘分"",""胳膊"",""老鼠"",""兴奋"",""耳朵"",""社会"",""牙刷"",""过程"",""光彩"",""空调"",""乌龟"",""地位"",""创伤"",""死亡"",""快乐"",""身份"",""婚姻"",""错误"",""脚踝"",""老虎"",""冷漠"",""疾病"",""扫帚"",""难过"",""钥匙"",""天堂"",""义务"",""数据"",""爱心"",""内容"",""现象"",""柜子"",""奇迹"",""恐惧"",""膝盖"",""舒心"",""债务"",""大象"",""作用"",""纪律"",""电视"",""肩膀"",""鼻子"",""斧头"",""风景"",""熊猫"",""骗局"",""桌子""],""distance_matrix"":[[0,0.03846899735994085,0.15913703246161398,0.06763255770928756,0.14709990487798155,0.1339173243240124,0.030261675552979497,0.06022692494608605,0.09594710422950986,0.13829156710031895,0.14030780513330113,0.11061216163984172,0.042633050140588435,0.16968487268305546,0.09495917800504912,0.2802007486678778,0.20065046991951602,0.15130911383081033,0.20041685883327223,0.38712266270624723,0.269892605044809,0.3134239490987489,0.25682811457770144,0.31399268960358356,0.41251034044605506,0.42781649699339797,0.3247649548612762,0.38321533551366177,0.37637499308178635,0.5577117342162545,0.5002489551463775,0.7179865494323228,0.6303950822502247,0.5633241887227683,0.4851818282493602,0.8012529518868866,0.6536182559549614,0.5073428997339544,0.4552739760433982,0.5787011794795256,0.6391726220369436,0.7234180966837591,0.8076993595596711,0.7103186506855768,0.8700085697131492,0.6593586005468541,0.24083850408005367,0.7716194534464883,0.8489205883684534,0.7476737275034239,0.8374780537993458,0.8780730253809916,0.5279265326014828,0.7890888540455958,0.6989897519711962,0.5582382618826053,0.7973981688470546,0.8129263521658848,0.6479183703756797,0.8593190487609053,0.49971870547851793,0.7085711985862475,0.605879307859331,0.7024665203740516,0.6701281473296187,0.7713172083122302,0.474327563441963,0.6339210464061137,0.6211165518968781,0.4390912133235215,0.4921188292699049,0.5592461132098578,0.44359897396715564,0.47240726199521804,0.51221342158656,0.374688024927541,0.5069130860437123,0.537209931420689,0.5573992060721437,0.55276391440263,0.5751941776541903,0.42907754984175583,0.44014380568975303,0.49877152149426796,0.4129538094677158,0.1605705117986623,0.2839502046649364,0.22283479169929,0.03198215563764978,0.1922553238072342],[0.03846899735994085,0,0.12829352994125712,0.12985729536684976,0.1451996330308553,0.09594710422950986,0.08148071763221866,0.07469934386494034,0.04155422336012639,0.08465915812031444,0.18949382560144964,0.17153971308224672,0.03406212185494732,0.11073427044456019,0.06377806567559635,0.2252464144097979,0.13964152069273458,0.17771618953168178,0.15079597424434718,0.324218076706467,0.20718036593760342,0.25314033280088555,0.19897646980275152,0.25538244716117486,0.35169561517444725,0.3645788487412589,0.26146299016979196,0.3199121840478991,0.3148307293095222,0.4947194876529317,0.43727514603560697,0.6552680379892327,0.567452918815788,0.5007300156737732,0.42266953319966055,0.7385418244317872,0.5905874471377386,0.4443209416341959,0.3923476197986228,0.5154833735569267,0.5759182492650411,0.6601166848285688,0.7444110899078331,0.6470995143777931,0.8067303383269054,0.5978963338060214,0.18374587881506485,0.7090571331844383,0.7864454222711119,0.6854928654436233,0.7759591346196089,0.8178264423687203,0.47446315406142736,0.735186552120293,0.6441694165547787,0.5211138966528398,0.7371217354663188,0.7539919247677883,0.5958057836084584,0.8029065158735825,0.45345959894417603,0.6495642521160917,0.5568046813342055,0.6518888803476687,0.6228305474904912,0.7154895294401366,0.41203887656389726,0.5774362159198911,0.5765138888985255,0.39077979109540834,0.4624238023175109,0.5131397356135313,0.4318132567233479,0.45062066043403304,0.47238608533951365,0.3127295010270549,0.49385308366155345,0.515597505266436,0.5247689421013828,0.5266078388470529,0.5237087165213672,0.3985431176124622,0.4011218164474563,0.46382028239964923,0.3883477292673046,0.09862009897906152,0.221519402312606,0.15968404475912015,0.09312436729942346,0.14451706596905148],[0.15913703246161398,0.12829352994125712,0,0.23819249375661716,0.05562851956013625,0.2286695944493245,0.21423090146438753,0.09464484157953104,0.16479801516940246,0.05646543647516235,0.20627090888563168,0.236977265514416,0.18709413399844713,0.1909765983798462,0.04098533154677811,0.2983320612574509,0.1161837401653666,0.13821777956091752,0.2529508680296886,0.28826061941187675,0.18452330598064895,0.1925392323700345,0.2630087836819417,0.30664093892465033,0.3770642664004205,0.3511358975370822,0.2528208746074556,0.3027838710857107,0.3366119488372926,0.48209330354886215,0.4280822735883516,0.6429203442954083,0.5531388124958256,0.49600339500173435,0.42343527823894167,0.7243282268914442,0.5732280146219233,0.4027537501382784,0.35141985839754,0.4775177423402023,0.5378278344505169,0.6247044660030691,0.7117699923127047,0.6214518011560919,0.7739466766858906,0.5276243830645976,0.113762881831954,0.6498385469733203,0.7245912152454407,0.6213400707290871,0.7029689320326364,0.7337522503408057,0.36220756980179375,0.6212399624801438,0.5344007461413443,0.3742698800505522,0.6542609294079181,0.6621888928906522,0.4772301979613993,0.698068529207843,0.32106653290781917,0.5596297219846907,0.4300805685964801,0.528372649702413,0.49151323169014827,0.6089674556340016,0.35849368214565547,0.475546556319457,0.44004350739563575,0.2642082434033429,0.31031901942803586,0.3799322757946925,0.28400865704404726,0.2977357098333541,0.3287523866299113,0.26224478721395417,0.34451197280065643,0.3626581424771648,0.3742434958679189,0.37363617749751704,0.40403588641959337,0.24668530346090753,0.25658768573161284,0.3149325718997781,0.23522476444989465,0.10798798262355973,0.2451519103175627,0.18305239174660493,0.18247271374397142,0.041644794276244866],[0.06763255770928756,0.12985729536684976,0.23819249375661716,0,0.20340879507525514,0.1981347567904803,0.03537558100945902,0.12140974608373614,0.1783686707838365,0.22949896979652956,0.11727819584311826,0.05156247035187421,0.10912694673257152,0.2528208746074556,0.17912971915428322,0.35537304285829097,0.2931139098022148,0.17144010671501286,0.27148072699880316,0.47888730910211325,0.361865405842848,0.4058314502215969,0.3365411925162599,0.39398860089612575,0.4955410907712027,0.5172427773861119,0.4150345188211598,0.47354644693874093,0.46107593847199285,0.6457706662686731,0.588317445939227,0.804874114577992,0.7181728296684112,0.6500280351877737,0.571805239033369,0.8880357033213507,0.74173133052105,0.5989100426110457,0.5470031132453006,0.6697146061569068,0.7299812159593596,0.8136675864388017,0.8973510609816032,0.799371617145075,0.959505044312212,0.7518218472593113,0.3325101804042747,0.8637298169473876,0.9410941173188907,0.8399968170969372,0.9299401782037643,0.9703820851312708,0.6169885061322823,0.8780463690299992,0.7886618224542808,0.6337474806077501,0.8897215096426928,0.9047950381743222,0.7358057927290989,0.949862413759231,0.583621028982395,0.8004969229156949,0.691578403959736,0.7890962465586642,0.754194697562599,0.86156026927112,0.566591328453485,0.7246634706901626,0.7030639997306688,0.5248948277770172,0.5610178772326333,0.6427333452096667,0.49386178386553575,0.5333453410373384,0.590570337187914,0.4670602603916729,0.5573888716986862,0.5969801638111669,0.62853978732133,0.617269688753234,0.6627907433586255,0.49967568876831664,0.5184291612863058,0.5727398682493943,0.47793079926894033,0.2528804624791179,0.37109122462392075,0.3122880516244514,0.03198215563764978,0.28018595419167325],[0.14709990487798155,0.1451996330308553,0.05562851956013625,0.20340879507525514,0,0.263014009542473,0.19816174081382437,0.0627364359040109,0.20108367819056006,0.12243473741455309,0.1357637728382709,0.18127197893095767,0.1973237120267618,0.24644143023147635,0.06889286557742472,0.3605600704598581,0.1919849194451647,0.059302319744449994,0.3033343821834319,0.3686789164035615,0.26313940174510003,0.2729038045852844,0.32697389723021114,0.3752072712528958,0.45221570065942746,0.4307975452493406,0.33116059207672777,0.38241829087965495,0.4118907939048307,0.5621465394548935,0.5077808393987194,0.7231848609693877,0.6333819293259775,0.5756051766599393,0.502284723026336,0.80470186400391,0.6535872149351657,0.48307455302461044,0.4318363148198576,0.5578382475134519,0.6180633652188727,0.7049442022053845,0.7920386791775479,0.7019099476773296,0.8541642885880611,0.6045996588151392,0.1942143566632093,0.7280017037434737,0.8021574554003036,0.6988899921536704,0.778633322803334,0.8066851138773486,0.42865316581055873,0.6836162451856034,0.5996090239856497,0.41048322401678955,0.7278858050521545,0.7332384916243992,0.5386239551945267,0.7641410811490756,0.3760186543326475,0.631908527761622,0.4870395160854883,0.5861251889465547,0.544020192307977,0.6749490675856389,0.43835784677648915,0.5446439131932715,0.48867669003126635,0.3252508290121212,0.3336197655783608,0.43276426047287375,0.27186628969657617,0.30547716273688197,0.3713343054484379,0.3426255620187552,0.33530697184973957,0.369538062238378,0.40192975152429816,0.3890279664295094,0.46591827974606487,0.27344390334844687,0.30029503625217374,0.34848189618724246,0.24976474778505342,0.1752880219711798,0.3183377916001386,0.25390230071396114,0.1471611365415514,0.1221075180913136],[0.1339173243240124,0.09594710422950986,0.2286695944493245,0.1981347567904803,0.263014009542473,0,0.13796849971270855,0.19513946937591775,0.03913088626299876,0.15729628747480082,0.29900164392569034,0.2628258187529646,0.06824868548442654,0.06101902726327551,0.17317978262822528,0.13474898476824593,0.16625200481341756,0.29784760967614604,0.049769338410736746,0.30610956461903605,0.20376440633586276,0.26656654355987036,0.12247558872316122,0.17804269246708204,0.2822943287937292,0.32370055299000783,0.23253857706623063,0.28754875507315675,0.2523925490470809,0.442856594363304,0.38657458021157765,0.5963484536776287,0.5132124298862635,0.4426764460183417,0.3655626307115654,0.6786302164973065,0.5376272910019938,0.4181423517122112,0.37014787343744515,0.4818083560308849,0.5393043074354082,0.6181616286102125,0.6978520900057507,0.598198205248004,0.7587844856376554,0.5863221249323394,0.22253700656871467,0.6843717312322364,0.7618403028122683,0.6656026092812757,0.7609774491649457,0.8115929929270874,0.5062733778779057,0.7596497513284851,0.6667606959194017,0.5923009214730727,0.7317587464717066,0.756292711406913,0.6289333563514694,0.8165848770102881,0.506989459899855,0.6531791151683799,0.6000304448138595,0.6887381988060486,0.6695066599938573,0.7328554256045411,0.3980454112276866,0.5947141615800817,0.6308632474979164,0.4413715152511488,0.5471293652354754,0.5653157014732696,0.53748553050295,0.5459103950498972,0.5395842141078574,0.30772375721146683,0.597560480834457,0.6099919202297441,0.6036501794822808,0.6150520308429244,0.5605940679055255,0.4836428692417186,0.4720501634595128,0.5401995207032235,0.4816420626116462,0.1305074460861193,0.17534814582690209,0.13706048129198783,0.18779566254970798,0.21731307807639597],[0.030261675552979497,0.08148071763221866,0.21423090146438753,0.03537558100945902,0.19816174081382437,0.13796849971270855,0,0.11061216163984172,0.12088422438123297,0.18892457884547148,0.15625264593679541,0.10409158079606225,0.049769338410736746,0.19470138341127788,0.1498340803331712,0.29529691009771974,0.24559726694441147,0.1888964286107895,0.21128691021627946,0.42685840639944445,0.31087061642328295,0.35921113251718817,0.27709294644065957,0.3344748254291952,0.436594315543928,0.4616792290645075,0.36066153828275965,0.4190684255258281,0.4027537501382784,0.588903503033339,0.5315314172997928,0.7471594909009095,0.6610450186199426,0.59234479415992,0.5141733080608999,0.8302168305554724,0.6848042877062864,0.5461528165994013,0.4947194876529317,0.6158249753921307,0.675707458830843,0.7585829008240974,0.8415625511958238,0.7431095970797982,0.9035304352391857,0.7029131256432961,0.2898038414334723,0.8121664898735693,0.8897215096426928,0.7894510082608851,0.8808277148271878,0.923674361002118,0.579433495646161,0.840445452198241,0.7497796935823806,0.6133289292764662,0.8429712032603582,0.8602508893969403,0.7001380781076274,0.9090216382100877,0.5537735019780778,0.7558207645126199,0.6592376688905391,0.7553427479202252,0.7240189469043655,0.8214460099595895,0.5160760392858907,0.6835376793456414,0.6755614303246587,0.4925725622916187,0.5468926198838431,0.6133689994299587,0.4947339637319788,0.5260183121039554,0.5671861885862459,0.4174626787702725,0.5582382618826053,0.590680321423435,0.6123782930549352,0.6070421076993338,0.627655118075904,0.4839681810533895,0.49514491612827194,0.5538566883102045,0.46716728072350966,0.2041260352337982,0.314214594740272,0.2575108816532371,0.04265534231943099,0.2453913807370029],[0.06022692494608605,0.07469934386494034,0.09464484157953104,0.12140974608373614,0.0627364359040109,0.19513946937591775,0.11061216163984172,0,0.13967809930943903,0.11246526024989137,0.10581847200854184,0.1194630530036829,0.11688601462508975,0.2012766879698698,0.047621285870769935,0.31814487022710874,0.18678159703068314,0.07821887582284351,0.24854593671337327,0.3765699076964001,0.26136314440301167,0.28981818369162066,0.28855355237545915,0.3425395859210988,0.4318956017227024,0.42882893548184553,0.3250445224246632,0.3814086777841649,0.39292413670464893,0.5612976801592827,0.5046849302972919,0.7233276259439638,0.6339689973135326,0.5708893442991259,0.49421836666901386,0.8062291139954457,0.655887056530007,0.49604960285759464,0.44359897396715564,0.5699467491185211,0.6308724238673074,0.7170645845051005,0.8032480950312588,0.708858287465689,0.865780925053463,0.6346513486833177,0.21075116927560128,0.7531513030286362,0.8293068185804969,0.7265156491342193,0.8118429349068181,0.8464189909293638,0.48041395835375045,0.7402109930875587,0.6526886269311715,0.4875036195846035,0.7663039863438195,0.7768884224790259,0.5964767839508629,0.815812217289431,0.4402731908840416,0.6734642812933062,0.5495359750399866,0.6478512885350535,0.6105556186559615,0.7268599231035882,0.4567849000255201,0.5921449044315974,0.5582073028293367,0.38365746609515006,0.4157691515803484,0.4989065280670055,0.35941083901548443,0.3915355423283169,0.44462864325102236,0.35709018672093423,0.4228711720325805,0.45596902763843455,0.4827812663524216,0.4737848322495739,0.5232780144128666,0.353906356580662,0.37255126452961634,0.42653859094452834,0.3339720958225629,0.1554617789023086,0.29740911334539516,0.2318011008874737,0.06469005154993822,0.14688980199033747],[0.09594710422950986,0.04155422336012639,0.16479801516940246,0.1783686707838365,0.20108367819056006,0.03913088626299876,0.12088422438123297,0.13967809930943903,0,0.09585989298283971,0.25519987107427583,0.23131414309061044,0.04760052200355577,0.049769338410736746,0.1097989969739756,0.16010747647861667,0.11954642569894698,0.24258234135184945,0.08445289096306419,0.2854663880087727,0.17288329170935673,0.22928596038137003,0.13606322164765078,0.19330600853423627,0.2929624788775866,0.31633754053634044,0.21656647617996874,0.27464677453785435,0.25793677390668385,0.44319097160897913,0.3858133620107244,0.6017493052059096,0.5153775714172446,0.4469044992543667,0.3686942064835583,0.684880593834835,0.5391016216478081,0.40322138424876314,0.35257349433704455,0.47156252143135785,0.5310526579085226,0.6133336435427584,0.6959846911507749,0.5974251219365142,0.7578932805462151,0.5646526114562758,0.17338478578010844,0.6700415622221524,0.7477009880688206,0.6486267934928115,0.7417215188963527,0.7879958714196453,0.4638387520459275,0.7214433479615359,0.6290713946086107,0.5358835606092496,0.7074956669841673,0.7283233290582154,0.5865682057103289,0.7833932985878371,0.45610979403413493,0.6242156354686222,0.5534614466591958,0.6450547317566411,0.6218566621326143,0.6977355189663539,0.3763449978126666,0.5590967208473347,0.5802171365346098,0.3911451820293113,0.48685140500618973,0.5152076877963598,0.47364000413221324,0.4833854296975387,0.4842282808236878,0.28020568000049406,0.5339029079599275,0.547718173089861,0.5450241532930822,0.554030820975653,0.5163735184781083,0.42309622812466086,0.4152567464261831,0.48209330354886215,0.4193631422719158,0.07907651570236982,0.16849808372474342,0.11366516735644464,0.15276342774038412,0.1574943990432611],[0.13829156710031895,0.08465915812031444,0.05646543647516235,0.22949896979652956,0.12243473741455309,0.15729628747480082,0.18892457884547148,0.11246526024989137,0.09585989298283971,0,0.24230093901289754,0.2515828880898323,0.13936692133380374,0.11014491192413263,0.041281766188743935,0.21748074648339077,0.05007117470356434,0.19349211446482817,0.17292893462920478,0.23927116666226514,0.12469516610504235,0.15459199070281585,0.18253075446493205,0.22845588755525023,0.30590496256429894,0.29314229507199807,0.1901875250772424,0.24526888751214657,0.26577566841191236,0.42568130088108797,0.36960289944219027,0.5877210054984215,0.4981103484164704,0.4365551943007007,0.3610281608725605,0.6703618732537996,0.5196571642405878,0.3588349324050503,0.3063640039924987,0.4326557683287641,0.49358330491771574,0.5797669781282826,0.6659859505829973,0.5718959949484556,0.7285150402962505,0.5011877595406774,0.07833558379128343,0.6175601148294984,0.6941480098721243,0.5917620079233183,0.6790663012193023,0.7170443086721084,0.3656782068303446,0.626695370835276,0.536181261968099,0.4173640394722722,0.636491772887115,0.6505627737674761,0.48660734540255746,0.6961996046802091,0.3446300626005647,0.5463292979765833,0.44733477975584485,0.5424393282725941,0.5135757540259663,0.6082574225589381,0.32043538618730655,0.47079525745854645,0.46809585138979215,0.2814851328621352,0.36617094776573395,0.40427432683219877,0.3592463823858378,0.3638829153645461,0.366901217280284,0.22044238789465687,0.4177754579521277,0.4278729875753873,0.42488258792222805,0.4333949779987081,0.41435346135070095,0.3024025590944171,0.2967362146840229,0.3623319180862292,0.2995353874022271,0.028259536880774545,0.17141711345090055,0.1066448149572163,0.1810529111565113,0.03770397560737011],[0.14030780513330113,0.18949382560144964,0.20627090888563168,0.11727819584311826,0.1357637728382709,0.29900164392569034,0.15625264593679541,0.10581847200854184,0.25519987107427583,0.24230093901289754,0,0.04974917255938955,0.20731647720202223,0.32434733778803243,0.17637497867239788,0.43957408259666575,0.31702025914847237,0.061054062259448566,0.3633213949530056,0.5060609149974705,0.3916764158592992,0.41667294733690763,0.41264789830490867,0.4682789153025187,0.5607584909659759,0.5594418109003011,0.4556936319635627,0.5119360563779812,0.5222561437980683,0.6919310642934714,0.6353375519084482,0.853969177316769,0.7645813772604902,0.7015041465713943,0.6247160452029903,0.9368489302085318,0.7864305888672398,0.6248897084384538,0.5725611170387377,0.6991248214790349,0.7600044070231606,0.8464431619540794,0.9328739665942896,0.8390309402743739,0.9953822045975277,0.7579932074594056,0.33681581607150063,0.8788057668894846,0.954249378831109,0.851114573231651,0.9338912188515417,0.9646628698668381,0.5889966321044311,0.8441369884548802,0.7601653869855939,0.5614259854471747,0.8853011776133606,0.8923542990638169,0.6991081988995455,0.9246571107480758,0.5356447489022321,0.7902911030878093,0.6468375383647611,0.7459465619208199,0.7023072475452583,0.8354573838784254,0.5840831604164985,0.704455527116606,0.6456091428380037,0.48583028389649396,0.4773020994929757,0.5915765713129395,0.38404393817316634,0.4369886028996949,0.5263977557973452,0.485075638813614,0.4459309360981078,0.49692965759577495,0.5470899144824007,0.5241061985486325,0.626473689862063,0.42166334211384177,0.4568067626302451,0.4988720616123636,0.3904647906834005,0.2860475665082317,0.42691501678927646,0.36162026147726084,0.09055876246956643,0.2683933642191845],[0.11061216163984172,0.17153971308224672,0.236977265514416,0.05156247035187421,0.18127197893095767,0.2628258187529646,0.10409158079606225,0.1194630530036829,0.23131414309061044,0.2515828880898323,0.04974917255938955,0,0.17005570933704234,0.30510808179708104,0.19035535787425015,0.41481902179237623,0.32283630155997145,0.12434265635198688,0.33333429200741954,0.5129607540023567,0.39584850786333264,0.4309460858489006,0.39221057991638714,0.4494232386505897,0.5476892725568361,0.5588880227029158,0.45502012545909054,0.5130194889087613,0.5111480055677867,0.6900334694337941,0.6326868219933007,0.8510939657425559,0.7628588203549955,0.6967689202073399,0.6188139974650224,0.9343570989238069,0.7857126987635329,0.633297366686476,0.5808408356692605,0.706149027118902,0.7669786825833352,0.8522883997922294,0.9375228536480662,0.8411996086523804,1,0.7771754390636455,0.35308332200016673,0.8939257670916456,0.9705634451855779,0.868154173528861,0.9547808208824702,0.9904100949661184,0.6239351446785062,0.8829445875368589,0.7961715158101013,0.6161348309552093,0.9101903368709486,0.9211684984986591,0.7386797477584259,0.9596410423493685,0.5795131499789798,0.817683621551245,0.6898545880938199,0.7886525768676945,0.7487692342333161,0.8706034500704158,0.5965954053438778,0.7363099134665442,0.6942986311380493,0.5252230895827806,0.5363099487749993,0.6372124231495052,0.4525057083074729,0.5007901172828663,0.5774262253677838,0.4964912586410518,0.5151714761816693,0.5623720115727934,0.6055166861944797,0.5870699036336381,0.6655241723376344,0.47794575872939427,0.5062422219744326,0.5539060745375417,0.45045611469879926,0.28625555789832724,0.4178026456967586,0.3550366024523739,0.05390891052644702,0.29111584295339715],[0.042633050140588435,0.03406212185494732,0.18709413399844713,0.10912694673257152,0.1973237120267618,0.06824868548442654,0.049769338410736746,0.11688601462508975,0.04760052200355577,0.13936692133380374,0.20731647720202223,0.17005570933704234,0,0.12038787851106338,0.1221075180913136,0.22183671119125412,0.18325489754653085,0.21551733736315665,0.1388531033371742,0.3571531988542601,0.2430319702000673,0.29604784181384886,0.2026231706556047,0.2600514050322314,0.36199375279506507,0.38869708169741957,0.28892292971321853,0.34706084168001355,0.3282287277710338,0.5149541554792736,0.4576555138668563,0.6727789246499509,0.5869346824480315,0.5179998123860793,0.43986874254047675,0.7557918605355337,0.6107899510308598,0.47540223825549716,0.424534587536911,0.5439778813903888,0.60348740433535,0.6856961330463662,0.7681651331122386,0.6694524971257005,0.8299986568069884,0.6354993098593095,0.23283064134888704,0.7420903496139387,0.8197361301070643,0.7203238175024679,0.812920965498293,0.8580404214806183,0.5249769116022358,0.7846541818289343,0.692889507562382,0.5791745465177711,0.7774286037184186,0.7969242021618916,0.6471241393485523,0.849493687424476,0.5087514988406089,0.6926065120588993,0.6103448824248094,0.7042533632159574,0.6772624922339708,0.7629428417617358,0.44756410243916356,0.6244195526589127,0.63229321188551,0.44522744204969233,0.5212984693525835,0.568366511940287,0.4886239594487716,0.5091798328434182,0.5299068304818051,0.3503669270070496,0.5510425087000401,0.5741780025192058,0.5834504212223327,0.5854822434378736,0.575692853441344,0.4574060362177305,0.4589445051280503,0.5222808890034641,0.4471053456411271,0.1412886397309834,0.24049289680636807,0.18589117894204374,0.09478325137345367,0.20095713404938223],[0.16968487268305546,0.11073427044456019,0.1909765983798462,0.2528208746074556,0.24644143023147635,0.06101902726327551,0.19470138341127788,0.2012766879698698,0.049769338410736746,0.11014491192413263,0.32434733778803243,0.30510808179708104,0.12038787851106338,0,0.15300888631079296,0.09209973468811714,0.09070206739493054,0.3014173614859086,0.03913088626299876,0.22147054927963392,0.11819611479715254,0.18203688927936665,0.06348901012647724,0.11987943615253362,0.21839158012730991,0.24503488241816576,0.14903132089629892,0.2057039387865938,0.18342109428701425,0.369839274277169,0.3126136207382376,0.5276243830645976,0.44172952601625587,0.3728161503794083,0.2946619386215721,0.61068581397588,0.46562393491535786,0.33586205969730604,0.28668561054004327,0.4019403256766933,0.46065473820326347,0.5417282261244956,0.6235083806613207,0.5245526798288523,0.6851857363425333,0.5019307449637639,0.14660926428326018,0.602768774708338,0.6803921345706988,0.5828665311624139,0.677483134897378,0.7268579219664415,0.4225518685784738,0.674342622881007,0.5814093081869953,0.5203722219867495,0.646828580113465,0.6707252908073901,0.5449396774225018,0.7307381230460525,0.4287725639502359,0.5674706965603167,0.5181632819852127,0.6051968334680636,0.5881579611127129,0.6471241393485523,0.31337502833434144,0.5090868684803077,0.5519195027054645,0.36295306140407047,0.4833765501459191,0.48613654010381774,0.49201697548568873,0.49004286812360065,0.466368653443798,0.2219342626067939,0.5489700051585396,0.5524851866348943,0.5356340134023808,0.5529644110035441,0.47754169694274445,0.4212049255972884,0.4015700743206475,0.47155040000264153,0.42528379250596066,0.06530960412462337,0.09595955783902019,0.05120722674344166,0.22638666946283684,0.15954540423989882],[0.09495917800504912,0.06377806567559635,0.04098533154677811,0.17912971915428322,0.06889286557742472,0.17317978262822528,0.1498340803331712,0.047621285870769935,0.1097989969739756,0.041281766188743935,0.17637497867239788,0.19035535787425015,0.1221075180913136,0.15300888631079296,0,0.2680956763668519,0.1161837401653666,0.12980866705385288,0.20968243001298606,0.3048846100538516,0.19080924908760438,0.21736276970535365,0.23534042333563707,0.28572320928141925,0.3688050418018956,0.35921113251718817,0.256052662599393,0.31137657054043566,0.3290415564688118,0.491757885403894,0.4355924184589542,0.6538066888104876,0.5642135416743075,0.5024102710199193,0.4265652508868595,0.736469976076691,0.5857730076309382,0.42400872969856934,0.37160379884548755,0.4980815827971686,0.5589885163072533,0.6453308723380758,0.7316931337710331,0.6378891652689501,0.7942087229155415,0.5624667865007817,0.13840218587052627,0.6807034824464143,0.756893308872739,0.6541413052687124,0.7398333871974305,0.7753032910161637,0.4137193688098375,0.6745297736164273,0.5857532991797383,0.43910742513980755,0.6950345481092077,0.706675642542091,0.5319206127538957,0.747936557168157,0.3806451810602431,0.6029317361907301,0.4878382181442084,0.5851691474597881,0.5511992126982924,0.6592618569320257,0.38436755743666795,0.5234014986547749,0.5015222327664814,0.32106653290781917,0.37613496810093316,0.44004350739563575,0.34379855901860407,0.3622425467943874,0.392531471026175,0.2847529574832002,0.405544943033771,0.4272445482138208,0.43993995096972904,0.43918523397362186,0.4588667649415272,0.31250215984402485,0.3205225094825293,0.38026660634863424,0.3003644277564614,0.08927410208597567,0.23381537742154712,0.1681008651416935,0.12578769689646468,0.07720672915124766],[0.2802007486678778,0.2252464144097979,0.2983320612574509,0.35537304285829097,0.3605600704598581,0.13474898476824593,0.29529691009771974,0.31814487022710874,0.16010747647861667,0.21748074648339077,0.43957408259666575,0.41481902179237623,0.22183671119125412,0.09209973468811714,0.2680956763668519,0,0.17069528817662014,0.41825100263077303,0.060156158584225856,0.20095713404938223,0.14883221666567503,0.21146522061037473,0.0116314979804357,0.025196335028841957,0.12710024441438214,0.1899705469674794,0.13046870751360387,0.16813204909089133,0.10460393248574151,0.2934118288632925,0.2398401147450558,0.44086789978246055,0.36089949263464216,0.28949293181175734,0.21503494852073962,0.5222561437980683,0.3856521541930079,0.2915963394793709,0.2517406588761882,0.3449841057508802,0.3982196750666412,0.47162312413561447,0.5475237232096472,0.44766917147292484,0.6071944473588929,0.46585390690178136,0.21508511199194336,0.5494128716687994,0.6255931485469709,0.5350889164934044,0.632744013153572,0.6903279999864339,0.4400143844826047,0.6721511681438699,0.5802544274528989,0.5753646260306582,0.6130082774270726,0.6445470545532858,0.556985687956514,0.7153574461554456,0.46982310042049724,0.5458260503712984,0.5426673289257098,0.6189074728639469,0.6133689994299587,0.6379754115711939,0.2860814350533384,0.505108035692765,0.5870969442851073,0.4060060562200567,0.5546152119122996,0.522179151556001,0.5853959731800975,0.5722563613840089,0.5198228982312947,0.2187870695062532,0.6384110108715388,0.6314227712195347,0.5982923592065598,0.6253525836285871,0.4971804176385608,0.4961073569136701,0.4630778402355397,0.5345298425723027,0.5083594974561668,0.16562909728468755,0.07212714018316392,0.09982053759844049,0.33684493058140097,0.25398863360634816],[0.20065046991951602,0.13964152069273458,0.1161837401653666,0.2931139098022148,0.1919849194451647,0.16625200481341756,0.24559726694441147,0.18678159703068314,0.11954642569894698,0.05007117470356434,0.31702025914847237,0.32283630155997145,0.18325489754653085,0.09070206739493054,0.1161837401653666,0.17069528817662014,0,0.2671235184991251,0.1520930373722122,0.1655659044081738,0.04982980328547061,0.08879853856057021,0.1342297065588472,0.16970807068357147,0.2361313085293379,0.2182740453635043,0.11570290462746464,0.17036420171314737,0.19569267419969805,0.35079966662827505,0.29482668196877604,0.5128292764381717,0.42320703509505936,0.3619431969587281,0.2868980016776508,0.5954566735747078,0.4447631993083144,0.28572320928141925,0.233238976050837,0.35901915977737925,0.4199350798934723,0.5058228555819322,0.5917937217582477,0.49725245284476727,0.6543318078442752,0.4338740056602602,0.031663556586342796,0.5472082585794936,0.6242596684663978,0.5225695004143944,0.6119933894875904,0.6533543619998954,0.3194580990617099,0.5775161343714508,0.48537939974608935,0.4049048540273217,0.5726492405161001,0.590039692590612,0.44219356345880517,0.641404819790653,0.31594049560834486,0.4856181527309933,0.4100579893629555,0.5008215963356172,0.47905749690173993,0.5549396190182968,0.24963324535509834,0.4163730242551996,0.4397780978462401,0.2502901289574937,0.36927860675666,0.3742359572096296,0.389913871005605,0.38002888853537636,0.35107187674100754,0.14961864781869502,0.4436278740368388,0.4411004053314212,0.42029343498509686,0.43932784962588134,0.3721839162982016,0.30792272045288505,0.2860475665082317,0.3561634954166184,0.31552530973292053,0.017153515588555365,0.10465040938482315,0.046869998730941484,0.24915601996597544,0.06022692494608605],[0.15130911383081033,0.17771618953168178,0.13821777956091752,0.17144010671501286,0.059302319744449994,0.29784760967614604,0.1888964286107895,0.07821887582284351,0.24258234135184945,0.19349211446482817,0.061054062259448566,0.12434265635198688,0.21551733736315665,0.3014173614859086,0.12980866705385288,0.41825100263077303,0.2671235184991251,0,0.3511158922094376,0.4496230188103241,0.340531850571778,0.35527412071009823,0.3871920344659849,0.4393148863773476,0.5233658282864142,0.509222084022514,0.4076230372135992,0.4609304179126481,0.48350084975383717,0.6413303078988112,0.5861079540274479,0.8029592154696846,0.7131410272780537,0.6535739112061811,0.5788556874170457,0.8849705643134487,0.7338632875641319,0.5654686164686046,0.513869029251591,0.6402116277223807,0.7006524694672345,0.7875108638133924,0.874520795416838,0.783421215512064,0.9367675896506208,0.688736090760317,0.2758398308066275,0.8120514624391567,0.8862807408591584,0.7830116706025063,0.8626541808221972,0.8900668478062154,0.5101620126010186,0.7625780474614569,0.6801425305179303,0.4755916471791018,0.8114904771378862,0.8160322829783981,0.6174945462258543,0.8448049208115408,0.4526065392409295,0.7151765554184918,0.5638559175383472,0.6629023013677381,0.6180072079657117,0.7556993606161422,0.521543551591275,0.6269123603936401,0.5607405094424109,0.40510082944878145,0.39156805583479376,0.5077243512911997,0.30343062670642995,0.3526532002981491,0.441110090544834,0.42488258792222805,0.3662748060229075,0.4135855782017991,0.4613111561456262,0.43944774251623414,0.5453118052992912,0.33578281374549745,0.37202854315999956,0.4130328304091224,0.30483442210740697,0.24378901230544003,0.38840597518217407,0.32273244697371173,0.1238275028978947,0.20422456221068255],[0.20041685883327223,0.15079597424434718,0.2529508680296886,0.27148072699880316,0.3033343821834319,0.049769338410736746,0.21128691021627946,0.24854593671337327,0.08445289096306419,0.17292893462920478,0.3633213949530056,0.33333429200741954,0.1388531033371742,0.03913088626299876,0.20968243001298606,0.060156158584225856,0.1520930373722122,0.3511158922094376,0,0.2511907914287052,0.16466311618290935,0.2309380245078774,0.05197484467522111,0.10478974009586832,0.20921372368190974,0.2583514021600859,0.1763675025282313,0.22681741622052,0.18144706564486202,0.37233165385143746,0.31690143207191046,0.5235798156950863,0.44167793780808173,0.37069209654368024,0.2943981724294999,0.6055142998349137,0.4662614590738997,0.35645949265616494,0.31117965242673856,0.4164139348615378,0.47238608533951365,0.5491561031250094,0.6273392034465861,0.5275018429220408,0.6877741721362817,0.5281441956610352,0.20664161907512846,0.6203732612901371,0.6974377611289434,0.6034490981720253,0.7000301755611182,0.7537833033723759,0.470862023210093,0.7165291165907779,0.6236475737000688,0.5801350884231266,0.6748394303507124,0.7024913389722681,0.5920351813227823,0.7675863671776693,0.48465065974524557,0.6009036870728692,0.5694407204096843,0.653148054042782,0.6399559883298845,0.6863626968057758,0.3419823004975763,0.549816133291794,0.6066587157348402,0.41898370060687756,0.5460289836700026,0.5408593646389203,0.5558107269395665,0.5538254948370567,0.5256112798343935,0.2592900449416167,0.6129162960489595,0.6160808517476516,0.5969898401995073,0.6158742806189198,0.5269705211800719,0.4842282808236878,0.4623219155485995,0.5328141919766494,0.4890719969387851,0.12926298154103988,0.11506997207352523,0.09803384639222563,0.25635775053908155,0.22350804556743592],[0.38712266270624723,0.324218076706467,0.28826061941187675,0.47888730910211325,0.3686789164035615,0.30610956461903605,0.42685840639944445,0.3765699076964001,0.2854663880087727,0.23927116666226514,0.5060609149974705,0.5129607540023567,0.3571531988542601,0.22147054927963392,0.3048846100538516,0.20095713404938223,0.1655659044081738,0.4496230188103241,0.2511907914287052,0,0.09256192606276216,0.07404735367196705,0.1812427833495071,0.1584817453937438,0.13081700758058132,0.049990804077428015,0.049990804077428015,0.017117674572314966,0.10529934307652328,0.1710718906464911,0.12124508005164909,0.33022977445973156,0.24063459354495537,0.1884807811452854,0.12626630609687842,0.4112738164665717,0.26022559698422193,0.09558538930418871,0.04332071729345244,0.16863808380738515,0.22956402043220117,0.3156622886829672,0.4019790953275017,0.3090734683753292,0.4644908987285856,0.25562927268869506,0.14969623415791158,0.36047419220062676,0.43804272688629065,0.3383515272025207,0.4317177179175404,0.4806669597321047,0.22283479169929,0.4463780672903097,0.35448578044426127,0.39186778303831166,0.4008286054501283,0.42667520650950896,0.33421098015503875,0.4922817535964463,0.274516152565101,0.32488541136588567,0.32724743843162346,0.39616305308964184,0.3968485191719668,0.41293319296321473,0.06711051099696518,0.2793167520758062,0.3793372275063521,0.21983448387185525,0.3998769280527846,0.3178508949844511,0.47924851648110783,0.43898095794509767,0.33774217208991153,0.012285643860444282,0.5175063343544163,0.48651321902101324,0.4252336614917768,0.46772951945437696,0.27959358558310704,0.35443422380936196,0.29951683715546096,0.36648628387483884,0.3834180381337367,0.20243130440641108,0.11175126951569302,0.14751061442669403,0.43817269921793295,0.22183671119125412],[0.269892605044809,0.20718036593760342,0.18452330598064895,0.361865405842848,0.26313940174510003,0.20376440633586276,0.31087061642328295,0.26136314440301167,0.17288329170935673,0.12469516610504235,0.3916764158592992,0.39584850786333264,0.2430319702000673,0.11819611479715254,0.19080924908760438,0.14883221666567503,0.04982980328547061,0.340531850571778,0.16466311618290935,0.09256192606276216,0,0.04155422336012639,0.11583128814867621,0.12930202314511863,0.17238052240188825,0.1439743717686267,0.04349705638399074,0.09585989298283971,0.13246090094933177,0.2763896466825037,0.2207672130792637,0.43835784677648915,0.3486752574520064,0.28822218164281693,0.2143126858294527,0.5208934295710956,0.3701326396322589,0.21296913549600777,0.16069217112566098,0.2854663880087727,0.34630369337886413,0.4318363148198576,0.5175534836711463,0.42266953319966055,0.5800878435531602,0.36770294458831043,0.05611312700335858,0.47704740187233974,0.5544620286480357,0.45378971156135395,0.5453513790785403,0.590362535539419,0.2815882401133958,0.531336717441538,0.4383935684885852,0.401852199733018,0.5098216904318105,0.5309119270492564,0.40329166098729846,0.5884229284914169,0.2988111399208595,0.4270015836663908,0.3800326039496092,0.4640972538352564,0.45062066043403304,0.5042899162059448,0.18037231484711982,0.3661170844739896,0.41898370060687756,0.23397816715470585,0.38286497542948433,0.3533697980425321,0.42800587879379026,0.4054785300009572,0.3463644841718788,0.08255065134170918,0.4762915375473202,0.46224162611371816,0.42476215673294443,0.45359167132426903,0.3375139186524723,0.32624626847915567,0.2896986448907862,0.3611334029811231,0.3430796733439833,0.08504315413755394,0.05744022125479029,0.043011021038752546,0.320788099891773,0.1210699187666621],[0.3134239490987489,0.25314033280088555,0.1925392323700345,0.4058314502215969,0.2729038045852844,0.26656654355987036,0.35921113251718817,0.28981818369162066,0.22928596038137003,0.15459199070281585,0.41667294733690763,0.4309460858489006,0.29604784181384886,0.18203688927936665,0.21736276970535365,0.21146522061037473,0.08879853856057021,0.35527412071009823,0.2309380245078774,0.07404735367196705,0.04155422336012639,0,0.18023299040859173,0.18514747354597652,0.20323078151195065,0.1450491723072537,0.07378840123228722,0.09977225922138426,0.16706895206139108,0.2699334330044619,0.21950841873518448,0.42834789431399145,0.33900120799222017,0.28711024820623837,0.22147054927963392,0.5087148490489235,0.3579832010883343,0.18539089746856188,0.13415403389336367,0.26015171037161366,0.32054428687239034,0.40740384512521644,0.49443277818614745,0.4044320454574602,0.5566598354690567,0.32192651929920607,0.05512216465006611,0.43853967408937145,0.5148956311087147,0.41237617986381464,0.4999423355301376,0.53993323649865,0.21591130020311095,0.4686448393965991,0.3759060604776242,0.3401075450361912,0.45923669650526505,0.47645660516471633,0.3381029344006944,0.5292963824849143,0.23376303038669846,0.3720474943602914,0.3136817780328004,0.3985573291980087,0.38424623021423976,0.4437049321744346,0.14257849593496297,0.30508984487969576,0.3529678744491957,0.16970807068357147,0.3289565310510169,0.2874716995755961,0.3904647906834005,0.3586113889548752,0.28449533065877003,0.04489171614162815,0.43363127337037194,0.4117667790985595,0.3658245541613569,0.3991963575691,0.27148072699880316,0.27621481418837773,0.23220521897943083,0.303100527887081,0.2989644812137008,0.13055585572092945,0.11570290462746464,0.10858686924776297,0.3598685974903805,0.12622647991448338],[0.25682811457770144,0.19897646980275152,0.2630087836819417,0.3365411925162599,0.32697389723021114,0.12247558872316122,0.27709294644065957,0.28855355237545915,0.13606322164765078,0.18253075446493205,0.41264789830490867,0.39221057991638714,0.2026231706556047,0.06348901012647724,0.23534042333563707,0.0116314979804357,0.1342297065588472,0.3871920344659849,0.05197484467522111,0.1812427833495071,0.11583128814867621,0.18023299040859173,0,0.03264023158729913,0.13550129636098862,0.18203688927936665,0.10754556211036997,0.15300888631079296,0.10525309802518319,0.29604784181384886,0.24029439414740067,0.4491154759801821,0.36599778933953875,0.29537208251646885,0.21842250088961843,0.5315314172997928,0.3904684127351278,0.28126407180092927,0.23764289875378833,0.3398642738593019,0.39560171121473164,0.4724707865517598,0.5511130307754706,0.4513414589807786,0.6117996690371443,0.4541195966528109,0.17919608366564538,0.544017547967827,0.6209605085407757,0.5276407196966968,0.6245631831394646,0.679561912605107,0.41351352019126125,0.6513017983127554,0.5588493667095583,0.5423889436748297,0.6011488416923321,0.6303973779937574,0.5322447345930625,0.6982183337789886,0.4387993036944882,0.529969193993334,0.515104617589539,0.593982912920521,0.585878929659403,0.6188864420826431,0.27002017364775543,0.4841307589864496,0.5575283702668594,0.3743640950390783,0.5195355939119412,0.49224975465517773,0.5489385460182296,0.5362482900296501,0.4869484084157881,0.1946876791376794,0.6020565199003056,0.5957015560414097,0.5642875938172814,0.5902378208516169,0.47048255264844846,0.460592766162484,0.4289449724670032,0.5003721256902612,0.4722499281542653,0.13018756335789203,0.04577069432606172,0.06348901012647724,0.31364178296800277,0.21762968773011435],[0.31399268960358356,0.25538244716117486,0.30664093892465033,0.39398860089612575,0.3752072712528958,0.17804269246708204,0.3344748254291952,0.3425395859210988,0.19330600853423627,0.22845588755525023,0.4682789153025187,0.4494232386505897,0.2600514050322314,0.11987943615253362,0.28572320928141925,0.025196335028841957,0.16970807068357147,0.4393148863773476,0.10478974009586832,0.1584817453937438,0.12930202314511863,0.18514747354597652,0.03264023158729913,0,0.0795963614632594,0.1407444489248565,0.09373489677558149,0.1225980747332437,0.05459364635211372,0.2441471618610611,0.1900545644834377,0.3939562753127864,0.31250215984402485,0.2413136877796316,0.16584221862463217,0.4759522278968115,0.3371733462909976,0.24271730934595917,0.20465757838232504,0.2950101531714682,0.3482158608011987,0.4220775344599637,0.4987255538670451,0.3988450112397089,0.5587668920327781,0.417132660994624,0.20483448605454052,0.4994146450655131,0.5755650915812304,0.485290944357332,0.5830274043044713,0.6411518970788871,0.40279948128477633,0.6282980046060157,0.5370252311789948,0.5497559238846216,0.5642007731225204,0.5965905640976112,0.5171511960259906,0.6688629318144819,0.4400240923230064,0.49880312189720666,0.5065282211973703,0.5791322077375405,0.5769164872694987,0.5928271880400753,0.23992535150601063,0.46168232093439426,0.554030820975653,0.37794287302802293,0.5363850024522002,0.4899931993149305,0.5791322077375405,0.5594624068443365,0.4941633007718876,0.1806287178164767,0.6292393018709214,0.616360086405993,0.5757128920512476,0.6070302046166413,0.45998502095308075,0.4803454773759638,0.4415392662226429,0.512720153621012,0.4967220408679543,0.1753631739694939,0.047037630113465644,0.09904582578757591,0.37078716356195707,0.25476443005820015],[0.41251034044605506,0.35169561517444725,0.3770642664004205,0.4955410907712027,0.45221570065942746,0.2822943287937292,0.436594315543928,0.4318956017227024,0.2929624788775866,0.30590496256429894,0.5607584909659759,0.5476892725568361,0.36199375279506507,0.21839158012730991,0.3688050418018956,0.12710024441438214,0.2361313085293379,0.5233658282864142,0.20921372368190974,0.13081700758058132,0.17238052240188825,0.20323078151195065,0.13550129636098862,0.0795963614632594,0,0.07328377791306782,0.10771589860295565,0.08930046418159626,0.015620862635494568,0.14297338014507183,0.09313711889068117,0.2895359991763627,0.20903369666150493,0.13757997057574525,0.06512585851607265,0.37154687888643023,0.23381537742154712,0.16766375942700493,0.14568550815129275,0.20478208317590738,0.2525607050096411,0.321544566726229,0.39584850786333264,0.2960665925921679,0.45529590744767096,0.33794125772995626,0.2530429099103459,0.40642831019453945,0.4809079373913045,0.3959343162445311,0.49403575731006066,0.5565718757311601,0.37255126452961634,0.5697367994825455,0.48220011758271936,0.5474659010451379,0.48271014103040405,0.5199333595467369,0.47493291673101506,0.5988521607788012,0.430070648557608,0.42817193799528785,0.47644760287805255,0.5359103870295032,0.544345352458842,0.5294809443200528,0.18305239174660493,0.4076230372135992,0.5318962960089955,0.37508316498599686,0.5516925518927942,0.47192602675770673,0.618049326365469,0.5858592246265453,0.49317401754241547,0.16549478734295334,0.661643489465916,0.6368851587987565,0.5801773570216555,0.620627334599183,0.4278729875753873,0.5024815917903022,0.45208640131352495,0.5204853304941796,0.5269459862865551,0.25474290922555254,0.11016719858146432,0.17596337738859924,0.46896480053987866,0.3167693535085881],[0.42781649699339797,0.3645788487412589,0.3511358975370822,0.5172427773861119,0.4307975452493406,0.32370055299000783,0.4616792290645075,0.42882893548184553,0.31633754053634044,0.29314229507199807,0.5594418109003011,0.5588880227029158,0.38869708169741957,0.24503488241816576,0.35921113251718817,0.1899705469674794,0.2182740453635043,0.509222084022514,0.2583514021600859,0.049990804077428015,0.1439743717686267,0.1450491723072537,0.18203688927936665,0.1407444489248565,0.07328377791306782,0,0.07923563296309243,0.02354551153465889,0.06562610381342697,0.10771589860295565,0.05215090033664269,0.26977519314356113,0.18030633085573242,0.1200352712923822,0.05183763300415873,0.35257349433704455,0.20241144692788726,0.07732459341974571,0.047621285870769935,0.13342383432775812,0.1909765983798462,0.2721652629926203,0.35527412071009823,0.2576972885097799,0.4174626787702725,0.2517352200024836,0.21451388213225128,0.3371941220707258,0.4142712523859883,0.32102739180916884,0.4183324733385849,0.4755916471791018,0.2763596826052406,0.47354946518685503,0.38502503993709614,0.45914967922264377,0.3986994188257971,0.4320372004041436,0.37683963332383796,0.5070431978912572,0.33992613784456127,0.3362913535125047,0.3796757685687869,0.43779242734678714,0.4469618926609401,0.4346636368827676,0.08504315413755394,0.31015291417269536,0.4366366931481713,0.28941635303446056,0.47253430299486254,0.37826019530233806,0.5540672002898407,0.5132431821990272,0.40613172873570313,0.0869433485165927,0.5921034557729212,0.5597146482656545,0.4946963250874715,0.5395415706277223,0.33094502846456963,0.42856359657172627,0.3719830565866077,0.43750945832885835,0.45814473914881904,0.2492658005005718,0.12439306587041864,0.18023299040859173,0.4817638185032194,0.2856166300160628],[0.3247649548612762,0.26146299016979196,0.2528208746074556,0.4150345188211598,0.33116059207672777,0.23253857706623063,0.36066153828275965,0.3250445224246632,0.21656647617996874,0.1901875250772424,0.4556936319635627,0.45502012545909054,0.28892292971321853,0.14903132089629892,0.256052662599393,0.13046870751360387,0.11570290462746464,0.4076230372135992,0.1763675025282313,0.049990804077428015,0.04349705638399074,0.07378840123228722,0.10754556211036997,0.09373489677558149,0.10771589860295565,0.07923563296309243,0,0.03367776045652444,0.06953264838248464,0.21146522061037473,0.15483495116345286,0.3734587111730545,0.2842180206181604,0.22153771970252645,0.1464688231443361,0.456422460834369,0.30647298962013203,0.16221025714369527,0.11289187801815156,0.23034922940879946,0.29025769595811146,0.373873933986192,0.45816965455741365,0.3613515914794496,0.5205404968633425,0.3290415564688118,0.1219538829340739,0.4292100885049577,0.5068678222856061,0.40900174752473517,0.5037779485437643,0.5544983808844467,0.28521905726625657,0.5189301009259935,0.42652526038285293,0.4338740056602602,0.47494495612163656,0.5014393489612294,0.40168647366562327,0.5668100217762061,0.3221736960472024,0.3997033444822399,0.38850424655175986,0.46360475158876147,0.4590502117383672,0.48671321687951064,0.1412886397309834,0.35175553558049083,0.4354617175420509,0.26114756897510244,0.42728780217687384,0.37148615525287326,0.4861630344155375,0.456959773085354,0.37843554865042867,0.06348901012647724,0.53116088817642,0.5103869001621335,0.46205320277632106,0.4973446434081399,0.3424290156498175,0.37481601781283835,0.3296998120733232,0.40007522244503063,0.3966772571556129,0.1452261711045777,0.03726950965527531,0.07833558379128343,0.3781743562850138,0.18926209296008462],[0.38321533551366177,0.3199121840478991,0.3027838710857107,0.47354644693874093,0.38241829087965495,0.28754875507315675,0.4190684255258281,0.3814086777841649,0.27464677453785435,0.24526888751214657,0.5119360563779812,0.5130194889087613,0.34706084168001355,0.2057039387865938,0.31137657054043566,0.16813204909089133,0.17036420171314737,0.4609304179126481,0.22681741622052,0.017117674572314966,0.09585989298283971,0.09977225922138426,0.15300888631079296,0.1225980747332437,0.08930046418159626,0.02354551153465889,0.03367776045652444,0,0.06364215717082174,0.15570356884097694,0.10053048408218382,0.31766648333278463,0.22801008471951198,0.16838912464221345,0.09781327921265244,0.40025927012788565,0.24966064688989836,0.10576089292183831,0.0598014392321337,0.17208282806935707,0.23180696221575667,0.3153838542591947,0.3998485927242342,0.3034443736205797,0.4622632438019271,0.2765543958572837,0.16649588285148936,0.37232029137539835,0.4499114417314026,0.35324250215560915,0.44901390217813625,0.502161999498469,0.2638437180272797,0.4809376797572699,0.389913871005605,0.4333687154353392,0.42343527823894167,0.4527199485934947,0.37313756046018565,0.5223936030017197,0.31635076740973844,0.35305545857916354,0.3682696860298655,0.4349679867337594,0.43755175206041297,0.44548337981824254,0.09312436729942346,0.3145338832277096,0.4210531398900502,0.260958149159918,0.43905230265283984,0.35975909804631184,0.5130390657856165,0.4759672464592519,0.3790393745938002,0.05150337788643513,0.5534510419151513,0.5250644541772492,0.46613892256488487,0.5074729065221374,0.3203438830605799,0.3918208520543487,0.33900534236834917,0.40679090912271,0.4189159090246571,0.20249086643434733,0.08773453792148274,0.13672564182582486,0.43642476619305276,0.2373561950898086],[0.37637499308178635,0.3148307293095222,0.3366119488372926,0.46107593847199285,0.4118907939048307,0.2523925490470809,0.4027537501382784,0.39292413670464893,0.25793677390668385,0.26577566841191236,0.5222561437980683,0.5111480055677867,0.3282287277710338,0.18342109428701425,0.3290415564688118,0.10460393248574151,0.19569267419969805,0.48350084975383717,0.18144706564486202,0.10529934307652328,0.13246090094933177,0.16706895206139108,0.10525309802518319,0.05459364635211372,0.015620862635494568,0.06562610381342697,0.06953264838248464,0.06364215717082174,0,0.1660551020221135,0.11096708236339883,0.32005614375850044,0.2359871652973834,0.16567647818626297,0.08834756047227728,0.4028838951709244,0.260410229783583,0.16735093239538254,0.1352759740475595,0.21598626767248721,0.26878810419957416,0.3432390929660942,0.42109362113034443,0.3212882488598492,0.4817133379046398,0.34140773856635004,0.21330415455414636,0.4202427418849301,0.49623728013511537,0.4067490863323524,0.5046650445478043,0.5640577464279772,0.3522265773488814,0.5623643264487483,0.4727852648300728,0.5188692378750194,0.488017168067237,0.5222478951475461,0.4598981380067937,0.5974613816711719,0.40322138424876314,0.4267351710188472,0.4566349582785058,0.5215187729906838,0.5257315085934758,0.5243993284147614,0.17229660285121104,0.39754355702976046,0.5094614442601108,0.3458170081025179,0.5185980378358238,0.4478696929594829,0.580527823996069,0.5504884794012016,0.4640111017605855,0.13684663607030623,0.6252878009414091,0.6028382781618936,0.5498396917774276,0.5881137887469932,0.40858894198595586,0.4677447887243945,0.41975241058307244,0.4891071206156994,0.49070855203710845,0.214934590093333,0.0707049526561331,0.1364833810864551,0.4325275171603032,0.27640962107820005],[0.5577117342162545,0.4947194876529317,0.48209330354886215,0.6457706662686731,0.5621465394548935,0.442856594363304,0.588903503033339,0.5612976801592827,0.44319097160897913,0.42568130088108797,0.6919310642934714,0.6900334694337941,0.5149541554792736,0.369839274277169,0.491757885403894,0.2934118288632925,0.35079966662827505,0.6413303078988112,0.37233165385143746,0.1710718906464911,0.2763896466825037,0.2699334330044619,0.29604784181384886,0.2441471618610611,0.14297338014507183,0.10771589860295565,0.21146522061037473,0.15570356884097694,0.1660551020221135,0,0.03264023158729913,0.13722764159317963,0.0480146748885835,0.0037718411312139813,0.05354511049711024,0.2201232728678796,0.0711291194803918,0.08828108851742897,0.12054316863470071,0.06232320199835285,0.09033694049412368,0.15374323770495466,0.23023130728757932,0.1305074460861193,0.2911348864149441,0.20280826738300214,0.3442267727757104,0.2443931133073441,0.3162669885492713,0.23927116666226514,0.33594545768385,0.40355509607833595,0.32655462459030843,0.4575744477824832,0.3812197904618547,0.5304326335244848,0.33594545768385,0.37976500691807086,0.3966344307778371,0.46693180525034633,0.4110219492530991,0.30252205399939663,0.4189972576807694,0.4515309615364408,0.47749977563865237,0.4110633620779729,0.1385127297295768,0.3142234679249224,0.4834209463527011,0.3744507531941928,0.5624258046251296,0.4351740448072145,0.661873531680489,0.611849285986614,0.48247001944757967,0.20328354075360192,0.6932080060502821,0.6508678306428803,0.5718254082074877,0.6244751553235831,0.3716720920105412,0.5274283057852476,0.46345690404863515,0.521543551591275,0.5625666678440746,0.3814864293946785,0.24990713772206366,0.3102876004241167,0.6124089808751049,0.4160558383434333],[0.5002489551463775,0.43727514603560697,0.4280822735883516,0.588317445939227,0.5077808393987194,0.38657458021157765,0.5315314172997928,0.5046849302972919,0.3858133620107244,0.36960289944219027,0.6353375519084482,0.6326868219933007,0.4576555138668563,0.3126136207382376,0.4355924184589542,0.2398401147450558,0.29482668196877604,0.5861079540274479,0.31690143207191046,0.12124508005164909,0.2207672130792637,0.21950841873518448,0.24029439414740067,0.1900545644834377,0.09313711889068117,0.05215090033664269,0.15483495116345286,0.10053048408218382,0.11096708236339883,0.03264023158729913,0,0.19396012430896747,0.10535712629075655,0.04318816298079268,0.006193410304628411,0.27709294644065957,0.12859775432383652,0.07268403838567912,0.0838870974217721,0.08828108851742897,0.13474898476824593,0.20747193528048472,0.28656969977190233,0.18720766959155538,0.34790524620020574,0.22654828599183488,0.2911301256571605,0.2884575389603195,0.36308880392708404,0.27852440717087457,0.3765399269935308,0.44037990657969966,0.3097934858058253,0.47113506223824925,0.38870799420541013,0.5065282211973703,0.3682696860298655,0.4080854116160613,0.39409992547997535,0.4908515035021681,0.3863002649714925,0.3218310706089417,0.40825216235381884,0.4522314664749198,0.47115325949588327,0.4274441473767949,0.11205929132363551,0.3172182125430832,0.47003288328356035,0.3432104842725421,0.5302050273726657,0.4169181874892282,0.6213400707290871,0.575695358304149,0.45600031262105695,0.15606149008646233,0.6560461417630389,0.6183627877617426,0.5454990969260965,0.5947869962140175,0.3597238951748774,0.4908690050400609,0.43002104511802286,0.4918277651863407,0.5234673455458579,0.32464445683834453,0.1924977079416913,0.2528804624791179,0.5549966958857632,0.36246011043920007],[0.7179865494323228,0.6552680379892327,0.6429203442954083,0.804874114577992,0.7231848609693877,0.5963484536776287,0.7471594909009095,0.7233276259439638,0.6017493052059096,0.5877210054984215,0.853969177316769,0.8510939657425559,0.6727789246499509,0.5276243830645976,0.6538066888104876,0.44086789978246055,0.5128292764381717,0.8029592154696846,0.5235798156950863,0.33022977445973156,0.43835784677648915,0.42834789431399145,0.4491154759801821,0.3939562753127864,0.2895359991763627,0.26977519314356113,0.3734587111730545,0.31766648333278463,0.32005614375850044,0.13722764159317963,0.19396012430896747,0,0.06499198926660688,0.1300128033454521,0.2082347626342184,0.05843972663744684,0.04602589366990954,0.22654828599183488,0.27198794228663975,0.158932506261922,0.11664167835671613,0.07763334208870418,0.09933690914108262,0.03537558100945902,0.14883221666567503,0.23744223909662368,0.5045712873820262,0.19426928703431876,0.23956148316188217,0.2115734148769009,0.28513656983003793,0.36040391393086035,0.43392647143109914,0.48506088853182794,0.4309427854726274,0.6425891173678074,0.3169322430588483,0.36927860675666,0.46933934868574023,0.46308092324256633,0.5286988490587452,0.3295555252050347,0.5084807948517015,0.5129215938341098,0.5541087738497482,0.43421820283558676,0.2784648978586321,0.3815641661298556,0.5754247727254219,0.5049036242734406,0.6898293306508588,0.5394002910800237,0.8028901601442893,0.7456674353079057,0.6009758013419285,0.3597747427327005,0.8279126383414358,0.7773667264030449,0.6877488409531674,0.7459543682049868,0.46655236081694607,0.6631997009615964,0.5950831022317373,0.6451333199304189,0.7021769074588986,0.5434063756527132,0.4092894383440759,0.47123210656526,0.7731553528707439,0.5766389482980648],[0.6303950822502247,0.567452918815788,0.5531388124958256,0.7181728296684112,0.6333819293259775,0.5132124298862635,0.6610450186199426,0.6339689973135326,0.5153775714172446,0.4981103484164704,0.7645813772604902,0.7628588203549955,0.5869346824480315,0.44172952601625587,0.5642135416743075,0.36089949263464216,0.42320703509505936,0.7131410272780537,0.44167793780808173,0.24063459354495537,0.3486752574520064,0.33900120799222017,0.36599778933953875,0.31250215984402485,0.20903369666150493,0.18030633085573242,0.2842180206181604,0.22801008471951198,0.2359871652973834,0.0480146748885835,0.10535712629075655,0.06499198926660688,0,0.04668094375594094,0.1228529276495077,0.147440775565874,0,0.14161430020542587,0.1840341521971883,0.08305375868097271,0.06715957872523713,0.09538535658038698,0.16221025714369527,0.06294232332735578,0.22147054927963392,0.19832357643338344,0.4148463923489039,0.20323078151195065,0.2676022857655431,0.20718036593760342,0.29786159442815713,0.37009836142211777,0.36475263783994777,0.4565255963098182,0.3898413270852482,0.5727398682493943,0.31128707660842386,0.3599155162837222,0.41712245033064993,0.4515309615364408,0.45569676234644574,0.2982482658514158,0.4484802820966036,0.46693180525034633,0.5008530735033485,0.40727854258274926,0.19404948283897203,0.3305981619028388,0.5147729880357534,0.42616518627717254,0.6131639080105449,0.47265224058863137,0.7204630939105174,0.6662820232291198,0.5280000034649353,0.2708302217352511,0.7482868577301179,0.7013425912152114,0.6163319338024542,0.6721533263508652,0.40353402723285825,0.5827699868321595,0.5162400900964701,0.5700377885718959,0.6201867217855191,0.4542671859112491,0.32224738134936454,0.38307153989113085,0.685187854929218,0.4868866811008846],[0.5633241887227683,0.5007300156737732,0.49600339500173435,0.6500280351877737,0.5756051766599393,0.4426764460183417,0.59234479415992,0.5708893442991259,0.4469044992543667,0.4365551943007007,0.7015041465713943,0.6967689202073399,0.5179998123860793,0.3728161503794083,0.5024102710199193,0.28949293181175734,0.3619431969587281,0.6535739112061811,0.37069209654368024,0.1884807811452854,0.28822218164281693,0.28711024820623837,0.29537208251646885,0.2413136877796316,0.13757997057574525,0.1200352712923822,0.22153771970252645,0.16838912464221345,0.16567647818626297,0.0037718411312139813,0.04318816298079268,0.1300128033454521,0.04668094375594094,0,0.053391425373203905,0.21319674697691535,0.07150458885104866,0.11527410993795208,0.14341204678291633,0.08965575836774511,0.11015605571273444,0.16319684052590666,0.23369903628364122,0.13418241536296205,0.29288200184234386,0.2286695944493245,0.3591523755451531,0.26171507714011605,0.3311479154776379,0.25937474122765103,0.35473553262803453,0.42396851139616487,0.35451750412147065,0.4846772313219213,0.40920973589075366,0.5576368460555482,0.3584897579628667,0.4035445617851251,0.42521694991281056,0.49180156137556635,0.43799072773381775,0.3288842433764618,0.44747493462636784,0.47998505489305326,0.5061034143751814,0.4377436519345411,0.16425784179967476,0.34263374916941186,0.5117762962233875,0.4000044136440907,0.5879174285952222,0.4630778402355397,0.6847131335202721,0.636236970469527,0.5091882833466661,0.22237276759928404,0.7173058243991794,0.6763363220550641,0.5986326433493566,0.6506184513572044,0.4000646018771517,0.55162992904828,0.48854192333282126,0.5476157009798082,0.585908486016632,0.39062413108680977,0.2545545312280961,0.31707745745669397,0.6186667461774676,0.43045076205127497],[0.4851818282493602,0.42266953319966055,0.42343527823894167,0.571805239033369,0.502284723026336,0.3655626307115654,0.5141733080608999,0.49421836666901386,0.3686942064835583,0.3610281608725605,0.6247160452029903,0.6188139974650224,0.43986874254047675,0.2946619386215721,0.4265652508868595,0.21503494852073962,0.2868980016776508,0.5788556874170457,0.2943981724294999,0.12626630609687842,0.2143126858294527,0.22147054927963392,0.21842250088961843,0.16584221862463217,0.06512585851607265,0.05183763300415873,0.1464688231443361,0.09781327921265244,0.08834756047227728,0.05354511049711024,0.006193410304628411,0.2082347626342184,0.1228529276495077,0.053391425373203905,0,0.2914204007325674,0.14723108890390546,0.10015796410672866,0.10206890528512433,0.11900363936780312,0.16314083246208347,0.2319768825433992,0.3081577055612404,0.2082928419315433,0.36857569282005226,0.2575694799236967,0.288683123844253,0.3174600001154867,0.3913440223783324,0.3085369469981968,0.40642831019453945,0.47088629943570603,0.3327416279207874,0.5011848998785122,0.41793855937862356,0.5255292906218698,0.3991395940495131,0.43910742513980755,0.42114759040161703,0.5217995313611199,0.4054086104701944,0.35260936410247196,0.4328398610007622,0.479931416335586,0.49692965759577495,0.4578705847756603,0.13418241536296205,0.3457885984004979,0.4935020537087126,0.35921113251718817,0.5447574836939268,0.43871818506365484,0.6301447979650258,0.5876792574755082,0.4739356501531272,0.16285252698604227,0.6671607860795385,0.6325014884556444,0.5632014137918022,0.6105887618138044,0.38411015385685676,0.5028637068192001,0.44424398469197773,0.5079276804480366,0.5336012983566493,0.31394385096734617,0.17639740543837837,0.23937936107349195,0.540622654387382,0.35877611781106084],[0.8012529518868866,0.7385418244317872,0.7243282268914442,0.8880357033213507,0.80470186400391,0.6786302164973065,0.8302168305554724,0.8062291139954457,0.684880593834835,0.6703618732537996,0.9368489302085318,0.9343570989238069,0.7557918605355337,0.61068581397588,0.736469976076691,0.5222561437980683,0.5954566735747078,0.8849705643134487,0.6055142998349137,0.4112738164665717,0.5208934295710956,0.5087148490489235,0.5315314172997928,0.4759522278968115,0.37154687888643023,0.35257349433704455,0.456422460834369,0.40025927012788565,0.4028838951709244,0.2201232728678796,0.27709294644065957,0.05843972663744684,0.147440775565874,0.21319674697691535,0.2914204007325674,0,0.12629616884628203,0.30317391188915704,0.35091578035223264,0.2316134676485914,0.17982179820916763,0.10912694673257152,0.06711051099696518,0.0864172699968337,0.08824118658810136,0.28075256326330883,0.58580010571271,0.20228564257943782,0.22322319716249037,0.22933922947066002,0.2801317016385313,0.3537673218282485,0.494198079912924,0.5088755256149022,0.4671886819965067,0.7012825165958706,0.3268883719768469,0.37986537654023506,0.514301667772529,0.472216639613849,0.5912909874353974,0.3611334029811231,0.5595911150499925,0.5515855670837828,0.5985457799501346,0.458023258121252,0.3539857820998042,0.4275638646040309,0.6262380711251707,0.5730921788533755,0.7548740845041313,0.5961546973781671,0.8736171495224525,0.813271026879731,0.6629482317592017,0.43959675538339976,0.8955059929831481,0.8413750209267623,0.7476386767914686,0.8078637642473,0.5209595790464069,0.7322119152141103,0.6627994936604806,0.7088603376964779,0.7727065875205327,0.6264367356971715,0.49253767387889485,0.5544905913115309,0.8564288604375795,0.6579346484647222],[0.6536182559549614,0.5905874471377386,0.5732280146219233,0.74173133052105,0.6535872149351657,0.5376272910019938,0.6848042877062864,0.655887056530007,0.5391016216478081,0.5196571642405878,0.7864305888672398,0.7857126987635329,0.6107899510308598,0.46562393491535786,0.5857730076309382,0.3856521541930079,0.4447631993083144,0.7338632875641319,0.4662614590738997,0.26022559698422193,0.3701326396322589,0.3579832010883343,0.3904684127351278,0.3371733462909976,0.23381537742154712,0.20241144692788726,0.30647298962013203,0.24966064688989836,0.260410229783583,0.0711291194803918,0.12859775432383652,0.04602589366990954,0,0.07150458885104866,0.14723108890390546,0.12629616884628203,0,0.1559034262410582,0.2011702201992795,0.09068904702021402,0.0607382309116104,0.07268403838567912,0.1373760839131748,0.03823092496842487,0.19676100276099198,0.1915265421848252,0.43472910547572063,0.18424290185744402,0.2460196774608507,0.1909835684509232,0.27898520912542063,0.3521587516871018,0.3704676477338244,0.44808603343774006,0.3849920073417053,0.5790724302886319,0.2963055690475474,0.34607259749853647,0.41615135918082213,0.4385753817853947,0.4633583141468007,0.2899137820443693,0.4505130792837207,0.46392801216389196,0.5004551778894291,0.3982196750666412,0.20800230057058308,0.3288714851944189,0.517184500129131,0.43675076735996166,0.6227840946003426,0.47749977563865237,0.7333555560824105,0.6773781776157408,0.5357306254995186,0.289181714356163,0.7595461999721195,0.7106848222962173,0.6234132482285305,0.6803900015770372,0.40667937267395066,0.5944203082678249,0.5269568908183554,0.5788357531311236,0.632780612885908,0.4765106154901003,0.34584947366724506,0.4061072952834901,0.7082101273317315,0.5068536765709492],[0.5073428997339544,0.4443209416341959,0.4027537501382784,0.5989100426110457,0.48307455302461044,0.4181423517122112,0.5461528165994013,0.49604960285759464,0.40322138424876314,0.3588349324050503,0.6248897084384538,0.633297366686476,0.47540223825549716,0.33586205969730604,0.42400872969856934,0.2915963394793709,0.28572320928141925,0.5654686164686046,0.35645949265616494,0.09558538930418871,0.21296913549600777,0.18539089746856188,0.28126407180092927,0.24271730934595917,0.16766375942700493,0.07732459341974571,0.16221025714369527,0.10576089292183831,0.16735093239538254,0.08828108851742897,0.07268403838567912,0.22654828599183488,0.14161430020542587,0.11527410993795208,0.10015796410672866,0.30317391188915704,0.1559034262410582,0,0.027661197922541136,0.049930469409885846,0.11045659103760135,0.1972424446398289,0.2842180206181604,0.19565856594777573,0.34649413793463696,0.149601401723541,0.2649099615343367,0.2421657605444467,0.319824906474011,0.22265859479618635,0.31875395695865916,0.3739984165342664,0.21546100423091408,0.3787673920082623,0.29368113457001915,0.41753069305732,0.296652003320748,0.3300645111325261,0.2966145689668011,0.4066514840568393,0.29795947072767853,0.23585448313166363,0.31171196083361197,0.3550207626212546,0.3738173381599439,0.3373395191588615,0.027603857189745194,0.22093252499771165,0.37448465778781953,0.26220286562866946,0.4500793435937897,0.32370055299000783,0.5540646018432153,0.5010647800260254,0.3693549349198349,0.1157564120087724,0.5828343514232888,0.5385038077396912,0.45872057955589535,0.5115295555238163,0.2634526436386815,0.41710883574505075,0.35174355226203663,0.4086652885954913,0.4538996985159082,0.32284495470851854,0.2182245400384177,0.2647230029760564,0.5585890163376991,0.336445441319014],[0.4552739760433982,0.3923476197986228,0.35141985839754,0.5470031132453006,0.4318363148198576,0.37014787343744515,0.4947194876529317,0.44359897396715564,0.35257349433704455,0.3063640039924987,0.5725611170387377,0.5808408356692605,0.424534587536911,0.28668561054004327,0.37160379884548755,0.2517406588761882,0.233238976050837,0.513869029251591,0.31117965242673856,0.04332071729345244,0.16069217112566098,0.13415403389336367,0.23764289875378833,0.20465757838232504,0.14568550815129275,0.047621285870769935,0.11289187801815156,0.0598014392321337,0.1352759740475595,0.12054316863470071,0.0838870974217721,0.27198794228663975,0.1840341521971883,0.14341204678291633,0.10206890528512433,0.35091578035223264,0.2011702201992795,0.027661197922541136,0,0.10179598224732278,0.1626199584401201,0.249221893563798,0.336007993524557,0.2455026900501315,0.39839742134663697,0.19215136200810803,0.21319674697691535,0.29274467042070096,0.37037631005088323,0.27149595608942856,0.3660555173378977,0.4178026456967586,0.20756904377298624,0.4022644725670317,0.3130412888801061,0.39881305621549273,0.3388730190218249,0.36825820614122506,0.3046381595077364,0.43939266043869013,0.27862852038677527,0.2693613259605927,0.3096496063138075,0.36544316609862854,0.375969867545581,0.3645749858803576,0.012608431424211147,0.23799225369808838,0.36844184414715897,0.23449492732116148,0.4216599731217952,0.312292513599303,0.5166652784413104,0.4683063690281293,0.3476791819937892,0.064454505209842,0.549177068127862,0.5099004619304702,0.43710910291914157,0.4860658818888351,0.2608107357955222,0.383598543003896,0.32163575275114115,0.3831084153956202,0.41767688837513617,0.2705400825842861,0.17156269199294857,0.21418055871494812,0.5062648809945817,0.28500066029767873],[0.5787011794795256,0.5154833735569267,0.4775177423402023,0.6697146061569068,0.5578382475134519,0.4818083560308849,0.6158249753921307,0.5699467491185211,0.47156252143135785,0.4326557683287641,0.6991248214790349,0.706149027118902,0.5439778813903888,0.4019403256766933,0.4980815827971686,0.3449841057508802,0.35901915977737925,0.6402116277223807,0.4164139348615378,0.16863808380738515,0.2854663880087727,0.26015171037161366,0.3398642738593019,0.2950101531714682,0.20478208317590738,0.13342383432775812,0.23034922940879946,0.17208282806935707,0.21598626767248721,0.06232320199835285,0.08828108851742897,0.158932506261922,0.08305375868097271,0.08965575836774511,0.11900363936780312,0.2316134676485914,0.09068904702021402,0.049930469409885846,0.10179598224732278,0,0.03609578992971966,0.1225980747332437,0.2094835048714678,0.12219962212991402,0.27181051558644254,0.11671608621636229,0.33961258546622797,0.1796453198560007,0.25628819822461385,0.16651160624471448,0.26462428171969976,0.3273371478427392,0.2568654961773625,0.37042198153069705,0.29499134045607645,0.4649241569558272,0.25538244716117486,0.2964366962192456,0.31443635473652753,0.3816048794383148,0.3483045603381326,0.2156612398629853,0.34213399871659356,0.3673809162268415,0.39697692005182844,0.3239766611921659,0.09810728084863359,0.2299480715166128,0.408026338658971,0.3214055704148492,0.5072609226075897,0.36483757319025234,0.6192251877426671,0.5621234749244718,0.4206616315897763,0.19049511861195553,0.6443357833636272,0.5951777292447062,0.5087261261760335,0.5651321511613896,0.2964601061541707,0.4794633270209967,0.411615157592165,0.4634014496785141,0.5184651557720654,0.3951936425221912,0.2819561974177164,0.33351903616826567,0.6307806543936973,0.4112013764209957],[0.6391726220369436,0.5759182492650411,0.5378278344505169,0.7299812159593596,0.6180633652188727,0.5393043074354082,0.675707458830843,0.6308724238673074,0.5310526579085226,0.49358330491771574,0.7600044070231606,0.7669786825833352,0.60348740433535,0.46065473820326347,0.5589885163072533,0.3982196750666412,0.4199350798934723,0.7006524694672345,0.47238608533951365,0.22956402043220117,0.34630369337886413,0.32054428687239034,0.39560171121473164,0.3482158608011987,0.2525607050096411,0.1909765983798462,0.29025769595811146,0.23180696221575667,0.26878810419957416,0.09033694049412368,0.13474898476824593,0.11664167835671613,0.06715957872523713,0.11015605571273444,0.16314083246208347,0.17982179820916763,0.0607382309116104,0.11045659103760135,0.1626199584401201,0.03609578992971966,0,0.06204662080341531,0.14916969381766942,0.0685713308635445,0.21128691021627946,0.1066448149572163,0.40017433494714877,0.1297210975341966,0.20352080649580898,0.12449383385621188,0.22077946222220365,0.28905234870415497,0.2928441232419735,0.3645633970677338,0.2995214748166127,0.5013593108302404,0.22427007464280152,0.27091669935993745,0.3312493156342984,0.3613048471800533,0.38849332866450564,0.20627090888563168,0.3677144407152964,0.3783945153402505,0.4157589093172985,0.31528656949442607,0.15623603170003197,0.24374421003025196,0.4346014330783523,0.36844184414715897,0.5510216116117009,0.3979351255793598,0.669105754662816,0.6087348234255722,0.460592766162484,0.2509999875614369,0.690990250641955,0.6380185305141275,0.5467873682542383,0.6056479220608527,0.3252121557887696,0.5275563085636491,0.45820702526066065,0.5055591651653861,0.5681915156197199,0.45596902763843455,0.34017348893433225,0.39336679374462596,0.6914713120041601,0.4715988839416901],[0.7234180966837591,0.6601166848285688,0.6247044660030691,0.8136675864388017,0.7049442022053845,0.6181616286102125,0.7585829008240974,0.7170645845051005,0.6133336435427584,0.5797669781282826,0.8464431619540794,0.8522883997922294,0.6856961330463662,0.5417282261244956,0.6453308723380758,0.47162312413561447,0.5058228555819322,0.7875108638133924,0.5491561031250094,0.3156622886829672,0.4318363148198576,0.40740384512521644,0.4724707865517598,0.4220775344599637,0.321544566726229,0.2721652629926203,0.373873933986192,0.3153838542591947,0.3432390929660942,0.15374323770495466,0.20747193528048472,0.07763334208870418,0.09538535658038698,0.16319684052590666,0.2319768825433992,0.10912694673257152,0.07268403838567912,0.1972424446398289,0.249221893563798,0.1225980747332437,0.06204662080341531,0,0.06232320199835285,0.01907974624241489,0.12442330340944548,0.14691607890706196,0.48698661683240796,0.09322634146550439,0.14891015418963416,0.10912694673257152,0.18649707142393465,0.26122645687957574,0.362708605047258,0.38472030499088766,0.33594545768385,0.5685668066784229,0.21453273561531877,0.2668142192960611,0.38070082400472377,0.36061471029899794,0.460592766162484,0.2316134676485914,0.42565792774500605,0.419644126677705,0.46512989715634895,0.3337372474595022,0.2428016297785443,0.29372835771100053,0.4922817535964463,0.4467865019844971,0.6251605304368361,0.46304084263160006,0.7485767087239807,0.6853382584294818,0.5316773974915482,0.337825137721718,0.7673528435648445,0.7108095653954175,0.6152706173949708,0.6762505036677188,0.38744386532025005,0.6058602277063999,0.5355239626705288,0.5784344356059445,0.6478043272660462,0.5411996282939315,0.4209350486081991,0.4765826202074539,0.7763046927468329,0.5584626658773928],[0.8076993595596711,0.7444110899078331,0.7117699923127047,0.8973510609816032,0.7920386791775479,0.6978520900057507,0.8415625511958238,0.8032480950312588,0.6959846911507749,0.6659859505829973,0.9328739665942896,0.9375228536480662,0.7681651331122386,0.6235083806613207,0.7316931337710331,0.5475237232096472,0.5917937217582477,0.874520795416838,0.6273392034465861,0.4019790953275017,0.5175534836711463,0.49443277818614745,0.5511130307754706,0.4987255538670451,0.39584850786333264,0.35527412071009823,0.45816965455741365,0.3998485927242342,0.42109362113034443,0.23023130728757932,0.28656969977190233,0.09933690914108262,0.16221025714369527,0.23369903628364122,0.3081577055612404,0.06711051099696518,0.1373760839131748,0.2842180206181604,0.336007993524557,0.2094835048714678,0.14916969381766942,0.06232320199835285,0,0.07504633576793225,0.03770397560737011,0.21556740017658196,0.5739293418474027,0.1163756159373941,0.13135726389394303,0.14739711189698082,0.18858653097005623,0.2618830119873513,0.4401179243303143,0.42429350623655265,0.3904684127351278,0.6423704626093736,0.2385011368784299,0.2911015596039468,0.4437049321744346,0.38241829087965495,0.5386239551945267,0.28322838007506346,0.49404445445109585,0.47551048070597113,0.5264550591141333,0.37391920486360886,0.3299288529543488,0.3594930409407067,0.5595911150499925,0.5290601622290881,0.7038385454369644,0.5361410412869252,0.8308921125383121,0.7656591614338173,0.6085519810359606,0.42480564949443045,0.8473128727004107,0.7881938638363318,0.6897661831378039,0.752083273624545,0.4594386406316452,0.6876052805696379,0.6167822272267817,0.656370825422324,0.7303876498629447,0.6265429732705202,0.502877959487952,0.5602985041188512,0.8611070454783696,0.6454924628214356],[0.7103186506855768,0.6470995143777931,0.6214518011560919,0.799371617145075,0.7019099476773296,0.598198205248004,0.7431095970797982,0.708858287465689,0.5974251219365142,0.5718959949484556,0.8390309402743739,0.8411996086523804,0.6694524971257005,0.5245526798288523,0.6378891652689501,0.44766917147292484,0.49725245284476727,0.783421215512064,0.5275018429220408,0.3090734683753292,0.42266953319966055,0.4044320454574602,0.4513414589807786,0.3988450112397089,0.2960665925921679,0.2576972885097799,0.3613515914794496,0.3034443736205797,0.3212882488598492,0.1305074460861193,0.18720766959155538,0.03537558100945902,0.06294232332735578,0.13418241536296205,0.2082928419315433,0.0864172699968337,0.03823092496842487,0.19565856594777573,0.2455026900501315,0.12219962212991402,0.0685713308635445,0.01907974624241489,0.07504633576793225,0,0.13586677130388375,0.17935085030929343,0.4829471866937758,0.1371347960576998,0.1900545644834377,0.15211854162691416,0.23013103060302129,0.30499864516760256,0.3843932888897906,0.42488258792222805,0.3719451471254396,0.592288734062087,0.25793677390668385,0.3099642623932792,0.4125688078219296,0.4037130794027776,0.4809079373913045,0.2697088091919168,0.4540881888148849,0.4545434010599256,0.4973187164573797,0.3740248169286871,0.24513519515213422,0.324919819890249,0.5210064300744676,0.4618461619298581,0.644027747336214,0.4878558225456798,0.7624232930764236,0.7020879317583874,0.5527951652038551,0.3347803087960439,0.7843344977387512,0.7307799300137905,0.6382295459402619,0.6978187859132755,0.4136370409591498,0.6209605085407757,0.5515855670837828,0.5982730467338988,0.6615098104855478,0.5307359633446477,0.4041340838170576,0.46267071216251343,0.7642630925542747,0.5549785356737583],[0.8700085697131492,0.8067303383269054,0.7739466766858906,0.959505044312212,0.8541642885880611,0.7587844856376554,0.9035304352391857,0.865780925053463,0.7578932805462151,0.7285150402962505,0.9953822045975277,1,0.8299986568069884,0.6851857363425333,0.7942087229155415,0.6071944473588929,0.6543318078442752,0.9367675896506208,0.6877741721362817,0.4644908987285856,0.5800878435531602,0.5566598354690567,0.6117996690371443,0.5587668920327781,0.45529590744767096,0.4174626787702725,0.5205404968633425,0.4622632438019271,0.4817133379046398,0.2911348864149441,0.34790524620020574,0.14883221666567503,0.22147054927963392,0.29288200184234386,0.36857569282005226,0.08824118658810136,0.19676100276099198,0.34649413793463696,0.39839742134663697,0.27181051558644254,0.21128691021627946,0.12442330340944548,0.03770397560737011,0.13586677130388375,0,0.26628248939343657,0.636236970469527,0.15184630643660846,0.13818087326645515,0.18663226882073183,0.2020073011794723,0.26893151450120273,0.4933279010727093,0.45239224804228645,0.42898806436204856,0.69206746371079,0.26253806707757826,0.3127918816318242,0.48708065616975654,0.39946588058280663,0.591852266091791,0.32231238480385305,0.540622654387382,0.5137573241863603,0.5679200423373297,0.4034427169254674,0.39162585135651556,0.40568822046104364,0.6049819158221196,0.5856153222052145,0.7571087954412679,0.5857730076309382,0.8870118358076992,0.8201527983036455,0.6606698861323138,0.48708065616975654,0.9013875289251607,0.8402628962212378,0.7398294528214315,0.8030082775951518,0.5087514988406089,0.7434151076307921,0.6723151728338413,0.7091678074593627,0.7868587943110986,0.6890459066830839,0.5646730253476908,0.6225238968152107,0.9235173437684718,0.7077174706276136],[0.6593586005468541,0.5978963338060214,0.5276243830645976,0.7518218472593113,0.6045996588151392,0.5863221249323394,0.7029131256432961,0.6346513486833177,0.5646526114562758,0.5011877595406774,0.7579932074594056,0.7771754390636455,0.6354993098593095,0.5019307449637639,0.5624667865007817,0.46585390690178136,0.4338740056602602,0.688736090760317,0.5281441956610352,0.25562927268869506,0.36770294458831043,0.32192651929920607,0.4541195966528109,0.417132660994624,0.33794125772995626,0.2517352200024836,0.3290415564688118,0.2765543958572837,0.34140773856635004,0.20280826738300214,0.22654828599183488,0.23744223909662368,0.19832357643338344,0.2286695944493245,0.2575694799236967,0.28075256326330883,0.1915265421848252,0.149601401723541,0.19215136200810803,0.11671608621636229,0.1066448149572163,0.14691607890706196,0.21556740017658196,0.17935085030929343,0.26628248939343657,0,0.399309861818162,0.10321352875392088,0.17327092133046432,0.07057891146676744,0.15328778978492041,0.2008171869088024,0.20270251626195096,0.23369903628364122,0.1693365700938312,0.4020249094659121,0.12234278051223706,0.15721367735817285,0.2090594232909152,0.24013548494997305,0.30104829848454734,0.07590112082807357,0.2548128458762446,0.25064528690598015,0.29363862775621624,0.18521909810065057,0.16380385770059314,0.12198462282695621,0.3211100178234719,0.2999385931312607,0.4661879408380269,0.29576175655881964,0.5988352775658305,0.5299664826820786,0.36955331901000055,0.26063690089027086,0.6108017837075821,0.5491587237922426,0.44951838255365995,0.51221342158656,0.21904009284572434,0.4551078914628871,0.3838047366518519,0.4181185807712107,0.4996670850029172,0.4744420646057821,0.3885333595079923,0.42764365849166064,0.7066242319594037,0.4648995851854332],[0.24083850408005367,0.18374587881506485,0.113762881831954,0.3325101804042747,0.1942143566632093,0.22253700656871467,0.2898038414334723,0.21075116927560128,0.17338478578010844,0.07833558379128343,0.33681581607150063,0.35308332200016673,0.23283064134888704,0.14660926428326018,0.13840218587052627,0.21508511199194336,0.031663556586342796,0.2758398308066275,0.20664161907512846,0.14969623415791158,0.05611312700335858,0.05512216465006611,0.17919608366564538,0.20483448605454052,0.2530429099103459,0.21451388213225128,0.1219538829340739,0.16649588285148936,0.21330415455414636,0.3442267727757104,0.2911301256571605,0.5045712873820262,0.4148463923489039,0.3591523755451531,0.288683123844253,0.58580010571271,0.43472910547572063,0.2649099615343367,0.21319674697691535,0.33961258546622797,0.40017433494714877,0.48698661683240796,0.5739293418474027,0.4829471866937758,0.636236970469527,0.399309861818162,0,0.5177309502329919,0.593747077186487,0.49093025574585625,0.5768664897026475,0.6139556212956757,0.2673243873885689,0.5272158101426809,0.4358145249097614,0.3490214462778423,0.5334396547554043,0.547458015751879,0.3896236191385789,0.594383870456171,0.2596286787804244,0.44319097160897913,0.35524246018504524,0.4473634511818341,0.4237606593924699,0.5069102571717113,0.22249443656761334,0.36890056444861874,0.38356907827030745,0.19407697043296768,0.3168926284225406,0.318127326539245,0.34951200213352923,0.3323586062778775,0.2949254872359532,0.12434265635198688,0.3999477581048661,0.391705307105,0.36567435484415284,0.387378185147186,0.3186663850993946,0.25690287281713725,0.2308497916810837,0.30147729479743035,0.26862412089578735,0.06948481520766124,0.1340215199894981,0.09151941367685083,0.28408170696449075,0.04730920037210294],[0.7716194534464883,0.7090571331844383,0.6498385469733203,0.8637298169473876,0.7280017037434737,0.6843717312322364,0.8121664898735693,0.7531513030286362,0.6700415622221524,0.6175601148294984,0.8788057668894846,0.8939257670916456,0.7420903496139387,0.602768774708338,0.6807034824464143,0.5494128716687994,0.5472082585794936,0.8120514624391567,0.6203732612901371,0.36047419220062676,0.47704740187233974,0.43853967408937145,0.544017547967827,0.4994146450655131,0.40642831019453945,0.3371941220707258,0.4292100885049577,0.37232029137539835,0.4202427418849301,0.2443931133073441,0.2884575389603195,0.19426928703431876,0.20323078151195065,0.26171507714011605,0.3174600001154867,0.20228564257943782,0.18424290185744402,0.2421657605444467,0.29274467042070096,0.1796453198560007,0.1297210975341966,0.09322634146550439,0.1163756159373941,0.1371347960576998,0.15184630643660846,0.10321352875392088,0.5177309502329919,0,0.05283176753172368,0.010881265712774407,0.06991444444881935,0.1436264871555397,0.3278493353030037,0.28315024365267594,0.25252274321972396,0.519491379787889,0.1003623865102499,0.15342285863243962,0.31078995153729844,0.2467074628937973,0.4252336614917768,0.1456502184705679,0.36579374875331727,0.33744333849493235,0.39124642171738294,0.23271385538058245,0.2727420893004258,0.23129065186070263,0.4292796558178418,0.4276336850252617,0.5894449243845671,0.4135855782017991,0.7251289499000635,0.6546329587132232,0.49152488449552484,0.37282371595389296,0.7346539578924199,0.6702580047678344,0.567506250448699,0.6315327853156808,0.33667853037114115,0.5815581648438807,0.5102941454949992,0.5408992498721656,0.6265706845705883,0.5862704353792886,0.4841898653606207,0.5315611571118534,0.821197127008063,0.5857311264117171],[0.8489205883684534,0.7864454222711119,0.7245912152454407,0.9410941173188907,0.8021574554003036,0.7618403028122683,0.8897215096426928,0.8293068185804969,0.7477009880688206,0.6941480098721243,0.954249378831109,0.9705634451855779,0.8197361301070643,0.6803921345706988,0.756893308872739,0.6255931485469709,0.6242596684663978,0.8862807408591584,0.6974377611289434,0.43804272688629065,0.5544620286480357,0.5148956311087147,0.6209605085407757,0.5755650915812304,0.4809079373913045,0.4142712523859883,0.5068678222856061,0.4499114417314026,0.49623728013511537,0.3162669885492713,0.36308880392708404,0.23956148316188217,0.2676022857655431,0.3311479154776379,0.3913440223783324,0.22322319716249037,0.2460196774608507,0.319824906474011,0.37037631005088323,0.25628819822461385,0.20352080649580898,0.14891015418963416,0.13135726389394303,0.1900545644834377,0.13818087326645515,0.17327092133046432,0.593747077186487,0.05283176753172368,0,0.07843759507088845,0.03971612364711227,0.10719283695976657,0.38880619382228765,0.29540496490087914,0.2868980016776508,0.5695951048226036,0.10640433573425882,0.15280577238108162,0.35308332200016673,0.2367128384260061,0.4837759764957473,0.1870444430456803,0.412