"trial_id","rt","stimulus","response","trial_type","trial_index","plugin_version","time_elapsed","participant_number","success","raw_payload","placements","dissimilarity_vector","n_words","trial_category","distance_matrix","value"
"consent_form","4193","
    <div style=""max-width:800px; margin:0 auto; text-align:left; font-size: 16px; padding: 10px 0;"">
      <h1>Informed Consent Form</h1>
      <p>You are being invited to participate in a research study titled <strong>""Reproducibility of Psychological Science and Instruction.""</strong> This study is being done by Dr. Bria Long from UC San Diego and associated graduate students in the Experimental Methods course. You were selected to participate in this study because you are an adult in the U.S. and have been a represented population in previous psychology studies.</p>
      
      <p>The purpose of this study is to better understand how well previously published studies in the psychological field replicate online and with different populations. Your participation in this research should last approximately <strong>5-30 minutes</strong>. If you agree to take part in this study, you may be asked to view a set of stimuli, including pictures, sounds, written text, or videos and then giving some responses via key-presses, verbally, or with paper-and-pencil. We may also observe your choices or preferences among an array of stimuli. These stimuli will be taken directly from or closely adapted from studies that already exist in the published psychological literature. Stimuli will include, e.g., pictures of objects and human faces, audio and video clips, short text passages, etc. None of the stimuli will be disturbing, threatening, or offensive. The online and in-person experiments described in this protocol will take no more than 30 minutes. An example game you might play would be to click on an image on the screen that matches a word you hear being said out loud. Your total expected time commitment for this study is between 5-30 minutes, and is specified in the study description.</p>
      
      <p>Your participation in this study is completely voluntary and you can withdraw at any time. Choosing not to participate or withdrawing will result in no penalty or loss of benefits to which you are entitled. You are free to skip any question that you choose.</p>
      
      <p>We will not be asking for any personally identifying information, and we will handle responses as confidentially as possible. Your SONA or Prolific IDs will never be tied to your responses on this survey. However, we cannot guarantee the confidentiality of information transmitted over the Internet. To minimize this risk, data containing anything that might be personally identifying (e.g. Prolific IDs or IP addresses) will be encrypted on transfer and storage and will only be accessible to qualified lab personnel. We will be keeping data collected as part of this experiment indefinitely. This anonymized data (containing neither Prolific IDs nor IP addresses) may be shared with the scientific community or with other participants to be used as stimuli in future studies.</p>
      
      <p>If you have questions about this project or if you have a research-related problem, you may contact the researcher(s), <strong>Dr. Bria Long, <a href=""mailto:brlong@ucsd.edu"">brlong@ucsd.edu</a></strong>. If you have any questions concerning your rights as a research subject, you may contact the UC San Diego Office of IRB Administration at <a href=""mailto:irb@ucsd.edu"">irb@ucsd.edu</a> or 858-246-4777.</p>
      
      <h3 style=""margin-top: 25px;"">Consent Statement</h3>
      <p style=""font-weight: bold;"">By participating in this research you are indicating that you are at least 18 years old, have read this consent form, and agree to participate in this research study. Please keep this consent form for your records.</p>
    </div>
  ","0","html-button-response","0","2.1.0","4197","6htd45bd2g_fsetxf","","","","","","","",""
"","38615","","{""participant_date"":""11/26/2025"",""participant_time"":""12:00:00 P.M""}","survey-html-form","1","2.1.0","42815","6htd45bd2g_fsetxf","","","","","","","",""
"","1982196","
    <div style=""display:flex; align-items:center; justify-content:center; height:100vh; font-family:sans-serif;"">
      <div style=""max-width:900px; margin:0 auto; text-align:center;"">
        <h1 style= ""font-size: 24px;"">Welcome! Thank you for participating in the study.</h1>
        <h2 style= ""font-size: 22px;"">The study will be in Madarin Chinese.</h2>
        <h2 style= ""font-size: 22px;"">Please use desktop computers or laptops for the study. Tablets and phones are not allowed.</h2>
        <p style=""font-size:16px; margin-top:30px;""><em>Press any key to continue.</em></p>
      </div>
    </div>
  "," ","html-keyboard-response","2","2.1.0","31513988","6htd45bd2g_fsetxf","","","","","","","",""
"","8156","
    <div style=""display:flex; align-items:center; justify-content:center; height:100vh; font-family:sans-serif;"">
      <div style=""max-width:900px; margin:0 auto; text-align:center;"">
        <p style=""font-size:18px; line-height:1.6;"">
          In this task, you will be presented with <strong>90 words</strong> arranged <strong>outside a circle</strong>.<br>
          Your job is to <strong>drag these words into the circle</strong> and <strong>rearrange them</strong> based on their <strong>meaning similarity</strong>.<br><br>
          Words that are <strong>similar in meaning</strong> should be placed <strong>closer together</strong>.<br>
          Words that are <strong>different in meaning</strong> should be placed <strong>farther apart</strong>.<br><br>
          You can place the words <strong>anywhere inside the circle</strong>. There is no single correct answer — 
          we are interested in <strong>your personal judgment</strong> of how these words relate to each other.<br><br>
          <strong>You must move all words into the circle before you can finish.</strong><br>
          After the initial arrangement, you will arrange words from specific categories.
        </p>
        <p style=""font-size:16px; margin-top:30px;""><em>Press any key to continue.</em></p>
      </div>
    </div>
  "," ","html-keyboard-response","3","2.1.0","31522147","6htd45bd2g_fsetxf","","","","","","","",""
"","1984","","","fullscreen","4","2.1.0","31525137","6htd45bd2g_fsetxf","true","{""placements"":[{""word"":""骄傲"",""x"":583,""y"":244.7,""cx"":602,""cy"":262.1,""angle_rad"":-0.336,""angle_deg"":340.8},{""word"":""冰箱"",""x"":35,""y"":170.7,""cx"":54,""cy"":188.1,""angle_rad"":-2.641,""angle_deg"":208.7},{""word"":""兔子"",""x"":558,""y"":592.7,""cx"":577,""cy"":610.1,""angle_rad"":0.853,""angle_deg"":48.9},{""word"":""反感"",""x"":470,""y"":357.2,""cx"":489,""cy"":374.6,""angle_rad"":0.175,""angle_deg"":10},{""word"":""协议"",""x"":643,""y"":195.2,""cx"":662,""cy"":212.6,""angle_rad"":-0.415,""angle_deg"":336.2},{""word"":""嘴唇"",""x"":52,""y"":532.7,""cx"":71,""cy"":550.1,""angle_rad"":2.519,""angle_deg"":144.4},{""word"":""剪刀"",""x"":4,""y"":408.7,""cx"":23,""cy"":426.1,""angle_rad"":2.913,""angle_deg"":166.9},{""word"":""长颈鹿"",""x"":641,""y"":451.7,""cx"":667,""cy"":469.1,""angle_rad"":0.359,""angle_deg"":20.6},{""word"":""制度"",""x"":591,""y"":140.2,""cx"":610,""cy"":157.6,""angle_rad"":-0.637,""angle_deg"":323.5},{""word"":""过失"",""x"":451,""y"":15.2,""cx"":470,""cy"":32.6,""angle_rad"":-1.209,""angle_deg"":290.7},{""word"":""友情"",""x"":593,""y"":421.2,""cx"":612,""cy"":438.6,""angle_rad"":0.326,""angle_deg"":18.7},{""word"":""方法"",""x"":605,""y"":133.2,""cx"":624,""cy"":150.6,""angle_rad"":-0.629,""angle_deg"":324},{""word"":""蚂蚁"",""x"":496,""y"":636.7,""cx"":515,""cy"":654.1,""angle_rad"":1.074,""angle_deg"":61.5},{""word"":""沮丧"",""x"":559,""y"":261.7,""cx"":578,""cy"":279.1,""angle_rad"":-0.301,""angle_deg"":342.7},{""word"":""沙发"",""x"":18,""y"":204.7,""cx"":37,""cy"":222.1,""angle_rad"":-2.754,""angle_deg"":202.2},{""word"":""暴力"",""x"":532,""y"":56.2,""cx"":551,""cy"":73.6,""angle_rad"":-0.942,""angle_deg"":306},{""word"":""筷子"",""x"":2,""y"":436.7,""cx"":21,""cy"":454.1,""angle_rad"":2.835,""angle_deg"":162.4},{""word"":""概念"",""x"":406,""y"":1.2,""cx"":425,""cy"":18.6,""angle_rad"":-1.348,""angle_deg"":282.8},{""word"":""麻雀"",""x"":526,""y"":620.7,""cx"":545,""cy"":638.1,""angle_rad"":0.976,""angle_deg"":55.9},{""word"":""椅子"",""x"":1,""y"":313.7,""cx"":20,""cy"":331.1,""angle_rad"":-3.084,""angle_deg"":183.3},{""word"":""买卖"",""x"":335,""y"":-4.8,""cx"":354,""cy"":12.6,""angle_rad"":-1.559,""angle_deg"":270.7},{""word"":""魔力"",""x"":509,""y"":40.2,""cx"":528,""cy"":57.6,""angle_rad"":-1.024,""angle_deg"":301.3},{""word"":""结果"",""x"":303,""y"":-9.8,""cx"":322,""cy"":7.6,""angle_rad"":-1.652,""angle_deg"":265.3},{""word"":""敌意"",""x"":396,""y"":-6.8,""cx"":415,""cy"":10.6,""angle_rad"":-1.382,""angle_deg"":280.8},{""word"":""纠纷"",""x"":568,""y"":75.2,""cx"":587,""cy"":92.6,""angle_rad"":-0.827,""angle_deg"":312.6},{""word"":""关系"",""x"":652,""y"":224.2,""cx"":671,""cy"":241.6,""angle_rad"":-0.326,""angle_deg"":341.3},{""word"":""铅笔"",""x"":215,""y"":9.2,""cx"":234,""cy"":26.6,""angle_rad"":-1.915,""angle_deg"":250.3},{""word"":""愤怒"",""x"":392,""y"":425.2,""cx"":411,""cy"":442.6,""angle_rad"":0.988,""angle_deg"":56.6},{""word"":""团队"",""x"":631,""y"":166.2,""cx"":650,""cy"":183.6,""angle_rad"":-0.506,""angle_deg"":331},{""word"":""洗衣机"",""x"":-7,""y"":238.7,""cx"":19,""cy"":256.1,""angle_rad"":-2.865,""angle_deg"":195.8},{""word"":""大腿"",""x"":259,""y"":671.7,""cx"":278,""cy"":689.1,""angle_rad"":1.78,""angle_deg"":102},{""word"":""慈善"",""x"":657,""y"":253.2,""cx"":676,""cy"":270.6,""angle_rad"":-0.239,""angle_deg"":346.3},{""word"":""手指"",""x"":150,""y"":623.7,""cx"":169,""cy"":641.1,""angle_rad"":2.127,""angle_deg"":121.9},{""word"":""性质"",""x"":658,""y"":420.7,""cx"":677,""cy"":438.1,""angle_rad"":0.263,""angle_deg"":15.1},{""word"":""猫"",""x"":387,""y"":672.7,""cx"":399,""cy"":690.1,""angle_rad"":1.428,""angle_deg"":81.8},{""word"":""眼睛"",""x"":64,""y"":554.7,""cx"":83,""cy"":572.1,""angle_rad"":2.448,""angle_deg"":140.2},{""word"":""床"",""x"":0,""y"":381.7,""cx"":12,""cy"":399.1,""angle_rad"":2.997,""angle_deg"":171.7},{""word"":""鼠标"",""x"":415,""y"":671.7,""cx"":434,""cy"":689.1,""angle_rad"":1.328,""angle_deg"":76.1},{""word"":""微波炉"",""x"":55,""y"":139.7,""cx"":81,""cy"":157.1,""angle_rad"":-2.519,""angle_deg"":215.6},{""word"":""原因"",""x"":559,""y"":432.2,""cx"":578,""cy"":449.6,""angle_rad"":0.412,""angle_deg"":23.6},{""word"":""锤子"",""x"":264,""y"":-8.3,""cx"":283,""cy"":9.1,""angle_rad"":-1.765,""angle_deg"":258.9},{""word"":""勺子"",""x"":30,""y"":491.7,""cx"":49,""cy"":509.1,""angle_rad"":2.655,""angle_deg"":152.1},{""word"":""缘分"",""x"":546,""y"":389.2,""cx"":565,""cy"":406.6,""angle_rad"":0.257,""angle_deg"":14.7},{""word"":""胳膊"",""x"":173,""y"":644.7,""cx"":192,""cy"":662.1,""angle_rad"":2.039,""angle_deg"":116.8},{""word"":""老鼠"",""x"":459,""y"":649.7,""cx"":478,""cy"":667.1,""angle_rad"":1.187,""angle_deg"":68},{""word"":""兴奋"",""x"":528,""y"":288.2,""cx"":547,""cy"":305.6,""angle_rad"":-0.222,""angle_deg"":347.3},{""word"":""耳朵"",""x"":90,""y"":583.7,""cx"":109,""cy"":601.1,""angle_rad"":2.336,""angle_deg"":133.8},{""word"":""社会"",""x"":635,""y"":298.2,""cx"":654,""cy"":315.6,""angle_rad"":-0.113,""angle_deg"":353.5},{""word"":""牙刷"",""x"":24,""y"":456.7,""cx"":43,""cy"":474.1,""angle_rad"":2.757,""angle_deg"":158},{""word"":""过程"",""x"":558,""y"":406.2,""cx"":577,""cy"":423.6,""angle_rad"":0.314,""angle_deg"":18},{""word"":""光彩"",""x"":637,""y"":328.2,""cx"":656,""cy"":345.6,""angle_rad"":-0.014,""angle_deg"":359.2},{""word"":""空调"",""x"":-11,""y"":267.7,""cx"":8,""cy"":285.1,""angle_rad"":-2.954,""angle_deg"":190.7},{""word"":""乌龟"",""x"":634,""y"":505.7,""cx"":653,""cy"":523.1,""angle_rad"":0.519,""angle_deg"":29.7},{""word"":""地位"",""x"":583,""y"":383.2,""cx"":602,""cy"":400.6,""angle_rad"":0.198,""angle_deg"":11.4},{""word"":""创伤"",""x"":522,""y"":427.2,""cx"":541,""cy"":444.6,""angle_rad"":0.46,""angle_deg"":26.3},{""word"":""死亡"",""x"":577,""y"":387.2,""cx"":596,""cy"":404.6,""angle_rad"":0.218,""angle_deg"":12.5},{""word"":""快乐"",""x"":528,""y"":233.2,""cx"":547,""cy"":250.6,""angle_rad"":-0.467,""angle_deg"":333.2},{""word"":""身份"",""x"":611,""y"":372.2,""cx"":630,""cy"":389.6,""angle_rad"":0.14,""angle_deg"":8},{""word"":""婚姻"",""x"":622,""y"":399.2,""cx"":641,""cy"":416.6,""angle_rad"":0.225,""angle_deg"":12.9},{""word"":""错误"",""x"":416,""y"":323.2,""cx"":435,""cy"":340.6,""angle_rad"":-0.11,""angle_deg"":353.7},{""word"":""脚踝"",""x"":343,""y"":678.7,""cx"":362,""cy"":696.1,""angle_rad"":1.536,""angle_deg"":88},{""word"":""老虎"",""x"":611,""y"":537.7,""cx"":630,""cy"":555.1,""angle_rad"":0.632,""angle_deg"":36.2},{""word"":""冷漠"",""x"":482,""y"":391.2,""cx"":501,""cy"":408.6,""angle_rad"":0.37,""angle_deg"":21.2},{""word"":""疾病"",""x"":584,""y"":446.2,""cx"":603,""cy"":463.6,""angle_rad"":0.422,""angle_deg"":24.2},{""word"":""扫帚"",""x"":74,""y"":100.7,""cx"":93,""cy"":118.1,""angle_rad"":-2.407,""angle_deg"":222.1},{""word"":""难过"",""x"":445,""y"":412.2,""cx"":464,""cy"":429.6,""angle_rad"":0.61,""angle_deg"":34.9},{""word"":""钥匙"",""x"":108,""y"":64.7,""cx"":127,""cy"":82.1,""angle_rad"":-2.265,""angle_deg"":230.2},{""word"":""天堂"",""x"":430,""y"":369.2,""cx"":449,""cy"":386.6,""angle_rad"":0.354,""angle_deg"":20.3},{""word"":""义务"",""x"":422,""y"":3.2,""cx"":441,""cy"":20.6,""angle_rad"":-1.301,""angle_deg"":285.4},{""word"":""数据"",""x"":607,""y"":157.2,""cx"":626,""cy"":174.6,""angle_rad"":-0.566,""angle_deg"":327.6},{""word"":""爱心"",""x"":438,""y"":281.2,""cx"":457,""cy"":298.6,""angle_rad"":-0.448,""angle_deg"":334.3},{""word"":""内容"",""x"":671,""y"":361.2,""cx"":690,""cy"":378.6,""angle_rad"":0.084,""angle_deg"":4.8},{""word"":""现象"",""x"":659,""y"":335.2,""cx"":678,""cy"":352.6,""angle_rad"":0.008,""angle_deg"":0.5},{""word"":""柜子"",""x"":146,""y"":40.7,""cx"":165,""cy"":58.1,""angle_rad"":-2.136,""angle_deg"":237.6},{""word"":""奇迹"",""x"":673,""y"":311.2,""cx"":692,""cy"":328.6,""angle_rad"":-0.062,""angle_deg"":356.4},{""word"":""恐惧"",""x"":585,""y"":155.2,""cx"":604,""cy"":172.6,""angle_rad"":-0.61,""angle_deg"":325.1},{""word"":""膝盖"",""x"":302,""y"":671.7,""cx"":321,""cy"":689.1,""angle_rad"":1.656,""angle_deg"":94.9},{""word"":""舒心"",""x"":662,""y"":289.2,""cx"":681,""cy"":306.6,""angle_rad"":-0.13,""angle_deg"":352.5},{""word"":""债务"",""x"":586,""y"":105.2,""cx"":605,""cy"":122.6,""angle_rad"":-0.728,""angle_deg"":318.3},{""word"":""大象"",""x"":647,""y"":478.7,""cx"":666,""cy"":496.1,""angle_rad"":0.433,""angle_deg"":24.8},{""word"":""作用"",""x"":484,""y"":30.2,""cx"":503,""cy"":47.6,""angle_rad"":-1.102,""angle_deg"":296.8},{""word"":""纪律"",""x"":642,""y"":358.2,""cx"":661,""cy"":375.6,""angle_rad"":0.082,""angle_deg"":4.7},{""word"":""电视"",""x"":188,""y"":25.7,""cx"":207,""cy"":43.1,""angle_rad"":-2.007,""angle_deg"":245},{""word"":""肩膀"",""x"":216,""y"":653.7,""cx"":235,""cy"":671.1,""angle_rad"":1.915,""angle_deg"":109.7},{""word"":""鼻子"",""x"":119,""y"":606.7,""cx"":138,""cy"":624.1,""angle_rad"":2.229,""angle_deg"":127.7},{""word"":""斧头"",""x"":251,""y"":-6.8,""cx"":270,""cy"":10.6,""angle_rad"":-1.802,""angle_deg"":256.7},{""word"":""风景"",""x"":664,""y"":388.7,""cx"":683,""cy"":406.1,""angle_rad"":0.167,""angle_deg"":9.6},{""word"":""熊猫"",""x"":586,""y"":566.7,""cx"":605,""cy"":584.1,""angle_rad"":0.743,""angle_deg"":42.6},{""word"":""骗局"",""x"":356,""y"":-9.8,""cx"":375,""cy"":7.6,""angle_rad"":-1.498,""angle_deg"":274.2},{""word"":""桌子"",""x"":-7,""y"":354.7,""cx"":12,""cy"":372.1,""angle_rad"":3.076,""angle_deg"":176.3}],""n_words"":90,""words"":[""骄傲"",""冰箱"",""兔子"",""反感"",""协议"",""嘴唇"",""剪刀"",""长颈鹿"",""制度"",""过失"",""友情"",""方法"",""蚂蚁"",""沮丧"",""沙发"",""暴力"",""筷子"",""概念"",""麻雀"",""椅子"",""买卖"",""魔力"",""结果"",""敌意"",""纠纷"",""关系"",""铅笔"",""愤怒"",""团队"",""洗衣机"",""大腿"",""慈善"",""手指"",""性质"",""猫"",""眼睛"",""床"",""鼠标"",""微波炉"",""原因"",""锤子"",""勺子"",""缘分"",""胳膊"",""老鼠"",""兴奋"",""耳朵"",""社会"",""牙刷"",""过程"",""光彩"",""空调"",""乌龟"",""地位"",""创伤"",""死亡"",""快乐"",""身份"",""婚姻"",""错误"",""脚踝"",""老虎"",""冷漠"",""疾病"",""扫帚"",""难过"",""钥匙"",""天堂"",""义务"",""数据"",""爱心"",""内容"",""现象"",""柜子"",""奇迹"",""恐惧"",""膝盖"",""舒心"",""债务"",""大象"",""作用"",""纪律"",""电视"",""肩膀"",""鼻子"",""斧头"",""风景"",""熊猫"",""骗局"",""桌子""],""distance_matrix"":[[0,0.7900126628778201,0.4946033605028273,0.22037601549979768,0.10215607243342291,0.863981740832481,0.860658955033856,0.30362753991533054,0.14127207418287976,0.37280216615562695,0.24546199074379027,0.15407397480331106,0.5708039164576851,0.03213504314355469,0.8094681357074387,0.27223321917069615,0.8753146656701886,0.4253195247246185,0.5400547833369614,0.8379293172519158,0.49878731185953584,0.304368064942879,0.5372791431606112,0.44322421963067304,0.23587836202664164,0.0937567968278901,0.6219957350047123,0.3699677191077781,0.12275292066532198,0.8335214751434892,0.7654546118655754,0.09738385972527032,0.8225318890894544,0.2664959155135438,0.6752627918935881,0.864647657326758,0.8663317448787766,0.6537801034713375,0.7588927876723455,0.2631895650740588,0.5789250861430577,0.8662708010146074,0.20547918175496804,0.8187120900344886,0.6026776503399847,0.09106756758150696,0.8556327288880048,0.09755862007510346,0.8549731924315515,0.22612355293146,0.13350444690438165,0.8500440385867761,0.37451445345711093,0.1900457763066841,0.2681038161063376,0.19601869764635954,0.0708980042253346,0.17852091882772098,0.22022163523214042,0.2566757103202358,0.7074533480386465,0.4156227622691363,0.24713917406692984,0.2812443141470278,0.7552768502198645,0.30371509441082273,0.7248558049511135,0.27509487413301326,0.4097052732646759,0.12089937619078919,0.2060025895939002,0.2009035568193199,0.16063018036616453,0.6876671692044836,0.15154538303857396,0.1191487170965512,0.7294933177475305,0.12081159958470734,0.19154000453453912,0.34072633371410926,0.3315340800078711,0.17472925166799658,0.6433397989413885,0.7850102463742382,0.8414477787312977,0.59246852049381,0.22872117327795302,0.45568937977594864,0.48321112224396745,0.8583261668677656],[0.7900126628778201,0,0.9623389728675605,0.6746731500778433,0.8703795083973586,0.5141482013111416,0.33698604521370157,0.9656902193790788,0.7956032729193756,0.6324322851318726,0.8749470287825062,0.8164424665022747,0.9384197601753861,0.7594250719996393,0.0445871676936461,0.7278337679164957,0.37755876323244625,0.5799929332672291,0.9536496744629369,0.20233016099918552,0.4926730250636407,0.701224278784376,0.4572852771717914,0.5718740619702026,0.7733865466469756,0.8860443675588817,0.33962146279217803,0.6242034300760303,0.8523193794050772,0.10026761653277759,0.7839651004815757,0.8978161328361745,0.6660967593858934,0.961278623782358,0.8712886671908859,0.5469994344364637,0.3009844130554709,0.8997873678879345,0.04906940502636625,0.8372785623025735,0.41030020710384135,0.4542779767260581,0.7940381067075079,0.7041827005013966,0.9155532648269185,0.7231871926518382,0.5926731025083078,0.8774780585674281,0.40386384992294966,0.8198349536647742,0.8903103478955289,0.1449615322262914,0.9830268539350643,0.8403651383319747,0.7863147508064168,0.8344039532768814,0.7089101658340283,0.8728904160837347,0.9013746736399487,0.5836123418687514,0.8495118026073372,0.9782052334165242,0.7110537571066993,0.8787102364798903,0.10555458893819898,0.6783563094010542,0.1758672627182688,0.6294773722902811,0.5999790913704406,0.8177844313003635,0.5944514753820903,0.9506077921735897,0.9236855501512994,0.2370061222357294,0.9352203281668037,0.786024095551422,0.811337994495524,0.9132357647831298,0.7927712559386965,0.9813190825200947,0.6705840539840866,0.9091821074310158,0.294693768911402,0.7362026800086754,0.632294968497208,0.3942574955974784,0.9531974969648737,0.9717751428077172,0.5226437397478115,0.2627594369195056],[0.4946033605028273,0.9623389728675605,0,0.35347950236118986,0.5779665955982479,0.7271476674885052,0.8345722793414152,0.23169902779407905,0.6463125024458654,0.8397430509911475,0.2429316022009175,0.6581761342197706,0.09961268629849414,0.4686991866667249,0.9520868050827936,0.7670776566496549,0.825472394385562,0.8735993977471158,0.051111844192479584,0.8913330275273313,0.9127410960398031,0.792465974816412,0.9366008573694261,0.8884870470489198,0.7388028366297062,0.540060968618328,0.9693233061604039,0.33092386894852294,0.6159149769746521,0.946120890131089,0.43722809670672913,0.5014692798665338,0.5818597970264918,0.2775600390149039,0.2720506216640202,0.7067583417360799,0.8625919833732936,0.22604714386695662,0.9619210058198261,0.22189613987257797,0.9580473412443129,0.76771980076284,0.28464750679451833,0.5519244277444858,0.15492355784893255,0.43247127503617294,0.6671350752413799,0.4301922057745581,0.7872225300343965,0.25952763989122224,0.38914857362560873,0.9380983972951938,0.15678214609868987,0.29497261688491877,0.2347315267368006,0.2882996111384573,0.5117606531250857,0.3178347641759189,0.28458359197142413,0.43051307753960943,0.32475675992029246,0.10012557041023638,0.3012979656179387,0.2049399093487722,0.9885941785230372,0.2978203013654004,0.9937864271346104,0.3623872095576276,0.8653002068614285,0.6239425456549793,0.47277137905285577,0.3624574559237914,0.38995007682786925,0.98662908149091,0.42973545192650037,0.6240647453839495,0.3773751036203171,0.45396732104088394,0.6963998374302001,0.19891500117584535,0.8108179886706763,0.35013032082124657,0.9696095762961643,0.4924329700035108,0.6253542517899074,0.9645295542372677,0.32234449695553447,0.044872029917958196,0.9094156255299424,0.8770210108131062],[0.22037601549979768,0.6746731500778433,0.35347950236118986,0,0.33264056583749274,0.6458002261695144,0.6682215903189567,0.28128382197013707,0.34921023687925756,0.4853833173708898,0.19026905372564779,0.3681449436975487,0.3958954920120913,0.178526463244545,0.6800850835913363,0.4344179090762967,0.6767146718363579,0.5131466670938989,0.3795068195411991,0.6713712594036019,0.548823289879662,0.45189113752682775,0.5732232327217817,0.5272439002677851,0.4217144194647367,0.3158620737883175,0.6140685515809798,0.13935219449455652,0.3511625263440477,0.691195902075159,0.537778161545038,0.2992977522349555,0.5923746762210395,0.2768032891119848,0.46447848940415254,0.643109397903978,0.6809478496731268,0.4517217155948315,0.6588354943331519,0.15803676214314252,0.596883545320279,0.6555714937144971,0.10892875851538475,0.5879141271859242,0.41326605498781066,0.12004103547882221,0.6299274501579512,0.2432157240307412,0.6510350224314188,0.13536122022532726,0.23491841236286815,0.6977784327856599,0.30981877776973404,0.15740750541277831,0.11578836261099337,0.1504209274841745,0.1877212021800368,0.19481632517629893,0.2178326011656751,0.08193232159107897,0.4899397252210604,0.32111203520638093,0.04175340364480772,0.19891500117584535,0.6725304243981688,0.07701503992452731,0.6632510235075219,0.05001264514153877,0.5066795727570605,0.3404786195107648,0.10892875851538475,0.28057456063157565,0.2649937131903255,0.6451996676912263,0.29086190915465093,0.32602958624493983,0.5056945018096334,0.28440508976135187,0.3911330265837304,0.30033191832462436,0.46334046511875576,0.2385425348595338,0.6195591664264775,0.5547106349892277,0.6129305087205201,0.6044794812286183,0.27406195491252744,0.336204886993186,0.5458480132216544,0.6800471517468608],[0.10215607243342291,0.8703795083973586,0.5779665955982479,0.33264056583749274,0,0.9747256162756204,0.9648024602254262,0.360925893746374,0.09912609126705894,0.3705257078933783,0.32461607860157904,0.09482469776043119,0.6631437099900025,0.14464602997484402,0.8943779207796799,0.24705272619647167,0.9811027627272395,0.4329080780974651,0.6283499701858573,0.9345797516860264,0.5211534073694991,0.2861517218349404,0.5642637312937557,0.4514445003135725,0.1944024584877554,0.03351537355364548,0.6650832137840266,0.4823651817282588,0.034992234812686374,0.9224566238129767,0.8754131297688599,0.07593011781588234,0.9350840480681863,0.3167030215675383,0.7786698179058635,0.9761007761765276,0.9684257307524526,0.7542078484323387,0.834410153726804,0.3535392347034233,0.6122612383260736,0.9752508264443475,0.3035307846576369,0.9309631011354182,0.6993374070818205,0.20365063485669826,0.9678465237199804,0.13910719262066445,0.9622638489911663,0.31884412069722873,0.1822801207064285,0.9420512703001055,0.4392112239223327,0.2752223510845424,0.3683220146899904,0.2834512469137487,0.16488125070665707,0.24992958470966758,0.286420065288983,0.36679204428002404,0.813225550234126,0.4875029067411374,0.35672609830397467,0.3627965597275021,0.8244932720555677,0.4147858803172478,0.786701250086915,0.3876874601709339,0.4133346662315175,0.06533308234779406,0.3113616086906424,0.23324740474808495,0.19353625509049488,0.7429485935609187,0.16300072289952708,0.09154895208964647,0.8377418941971405,0.12838205632199784,0.143770399803313,0.39997975150868365,0.32125341305311295,0.22551491777265525,0.6924088299719008,0.8965013286464076,0.9540052348210973,0.6279049348089284,0.2713051039734288,0.5336153179133557,0.5001018411574175,0.9583753341969001],[0.863981740832481,0.5141482013111416,0.7271476674885052,0.6458002261695144,0.9747256162756204,0,0.18203532966209793,0.8602258689296709,0.954731702336578,0.9354673550258509,0.7891394992254723,0.977085801391538,0.6496647480713821,0.8217265274581168,0.466898413739084,0.9686076659039176,0.14624393618946555,0.9139580044651522,0.6874195009389547,0.3150551661182473,0.8688688072885923,0.9621151997076582,0.8548306302111265,0.9157560494430753,0.9877992106311557,0.9661647734550607,0.783231821426214,0.5057391570916404,0.9814830737737286,0.421743510539954,0.3504897151978356,0.9542626558416551,0.18314798199085855,0.8816261677746156,0.505795478131445,0.02583686806181712,0.2242326503473663,0.5522242915041506,0.5586285426316788,0.737743554136264,0.8306614291991485,0.0569149944027195,0.7342050125027567,0.22823003141394102,0.6025699873398869,0.7641724601938551,0.081625573538074,0.8991866270719308,0.10680335812236155,0.7445586162119587,0.8866215002849669,0.3838506059975382,0.8329353349433902,0.7880879497030786,0.6868341291552258,0.778165137546224,0.8036349496320677,0.8314286878969435,0.8369868422165098,0.5975042601597969,0.4608394765777784,0.7987682203724906,0.6448384288713991,0.7697652690329612,0.6157087860843298,0.5845850680283915,0.6718424556858253,0.585723181395633,0.9246204707623065,0.9595479538564743,0.6564486926310023,0.9193428348767945,0.9135578377714179,0.7146326759692738,0.9439533724637401,0.9350109140633428,0.4036210146702597,0.9403117719128338,0.9797377238904297,0.8543870539681844,0.9488008052201002,0.8801807179965513,0.7494092353683596,0.28457915292785557,0.1340619902191389,0.8219421009691601,0.8996480843007957,0.7641126084311245,0.8897425634062097,0.2610089525204588],[0.860658955033856,0.33698604521370157,0.8345722793414152,0.6682215903189567,0.9648024602254262,0.18203532966209793,0,0.9238523686310384,0.9239378690784976,0.851608695694064,0.8423539968580049,0.9465821586217826,0.7745068449377784,0.8206481363017246,0.2855541387737384,0.9085382016269431,0.030196000263296364,0.8181562516279756,0.8051158652503237,0.12714638797582942,0.7562698926368175,0.8944960185978694,0.734085411195349,0.8164399324347096,0.9380235626477966,0.9648465048212325,0.6435565021529844,0.5517143347554032,0.9626859752698339,0.23571135933244783,0.5198312979252847,0.9612357652428761,0.36575746767098166,0.9364113890896423,0.6545982281362476,0.21805279827675564,0.031764295351886115,0.6958805017527069,0.3878979278053173,0.7936655574421577,0.700904379188882,0.11546424568356779,0.7746353015054712,0.40973955932988176,0.7348768851121124,0.7678695693741803,0.2718168729584738,0.9168582853818158,0.0648336679720477,0.7915063231874145,0.9132334962652766,0.19481632517629893,0.912257232900788,0.8284990691068608,0.7398648126706345,0.8195850688180365,0.7894840330635559,0.869804819025079,0.8842463325958285,0.5986543551798512,0.6169006603214827,0.887840844564282,0.681948764101339,0.8308871661565393,0.4467731514526701,0.6279463751610607,0.5097741554255508,0.6088583630081761,0.8325641298728622,0.935305631729728,0.6443426001259224,0.9575152318482326,0.9436503451226007,0.5605381962015522,0.9681955878584002,0.9071497050644207,0.5648977869947605,0.9576223805891887,0.9396988871134443,0.925828373329014,0.8744120115490541,0.9159799942440046,0.604629395540068,0.4585485910302691,0.32101011098866816,0.6892625232490615,0.9453758208513419,0.8625223774146826,0.7811500123408152,0.06933404147401225],[0.30362753991533054,0.9656902193790788,0.23169902779407905,0.28128382197013707,0.360925893746374,0.8602258689296709,0.9238523686310384,0,0.4479568795695462,0.6827820073883512,0.08059849244773018,0.454785516663149,0.33615274717939203,0.2932724050646437,0.9690963154850206,0.5861799260893944,0.9249237827307116,0.7298107697931885,0.29127888584139816,0.9471859884405252,0.7907730809237884,0.6182890189181153,0.8236345373150263,0.7468973755962687,0.546727315584298,0.31892763023377285,0.8857451404237925,0.36211171607483394,0.4035659775173881,0.9769412404328898,0.6364690009846513,0.27719329583276753,0.7522209390241401,0.03671232391467675,0.49239130018897825,0.8479717002490437,0.9430986651482411,0.4534272666894208,0.9505573714196208,0.12144864237128451,0.8569454658719586,0.8860125209829735,0.16272414274326713,0.731732746763743,0.3857882206644113,0.2831382610843142,0.8195809665452718,0.21255428854218947,0.8928548723943343,0.13554254853109435,0.169040411293321,0.9799754985544735,0.07031304062808867,0.12625446559664424,0.17536750933615228,0.12841412757279724,0.3504091548654092,0.11649396721124212,0.0743663013512653,0.3734631639786148,0.5399196413813522,0.12508251909797818,0.24531456028978427,0.08254559871307009,0.9634842301498666,0.28892321240162006,0.9512428671742555,0.3269663060507396,0.7165493844939252,0.4199732677336297,0.3811209011641639,0.12472837240617246,0.15894998030506577,0.9287064987042338,0.19613538018262602,0.4283384610061096,0.5830808111946617,0.22565807142832678,0.4990999417213906,0.028671994443107612,0.6442561915542426,0.12518491347453567,0.8971073102291045,0.6798844004836494,0.7875035579278961,0.8674808192599591,0.08365167269286011,0.1786802559706285,0.7800904859548845,0.9480400568965387],[0.14127207418287976,0.7956032729193756,0.6463125024458654,0.34921023687925756,0.09912609126705894,0.954731702336578,0.9239378690784976,0.4479568795695462,0,0.2612404312180933,0.3963303614602412,0.01221921557314726,0.7213025474188355,0.17143526821615798,0.824239761035455,0.13815135079784707,0.944096069406345,0.3245222582306292,0.6914392524168339,0.8797712522791247,0.41544567746007266,0.17675925934340747,0.4596085103908005,0.3430516970554601,0.08936837510016167,0.13983402821993487,0.5659239132062159,0.4927266442722964,0.058620023273322365,0.856857589093196,0.8966919143666888,0.1789902322362881,0.9368464182373712,0.40701851992298266,0.8186833434640385,0.9601029675922461,0.9231133747715592,0.8000130933414205,0.755310029389355,0.4147735609405021,0.5094301589567818,0.9478643297295979,0.3558376012309782,0.9379418176878547,0.751432356467908,0.2223995176889862,0.9581081892181045,0.2269756685921752,0.9295274802374566,0.37755876323244625,0.26972679608188843,0.8803101076636629,0.522285928887716,0.3415041542588474,0.4168431375516111,0.34767760539202286,0.15216349905505375,0.3266362248441561,0.36715014681064745,0.35608922725825615,0.8477535092150379,0.5656861929573144,0.3856745056974416,0.4326244119981437,0.7401203008567129,0.4364269892584257,0.6972131041752895,0.3947742822445341,0.30448036583138,0.02335478320917298,0.29074018220999737,0.32978254723680506,0.2885020737708081,0.6496222903749239,0.264079286881855,0.012947354495646513,0.8653085812274323,0.22848011370526666,0.04073987503682468,0.4862135699138726,0.21169637468144173,0.31364551713626704,0.5960082945055108,0.9099815186011384,0.9501934459035573,0.5257551187933018,0.36447490329884136,0.6069793812925748,0.39312394693093305,0.9091923606895967],[0.37280216615562695,0.6324322851318726,0.8397430509911475,0.4853833173708898,0.3705257078933783,0.9354673550258509,0.851608695694064,0.6827820073883512,0.2612404312180933,0,0.6121716394163828,0.2703991037604833,0.8915621648519196,0.37912511453570225,0.6737427542421786,0.12097712916875039,0.8810190646442548,0.057780515755707244,0.872744518180457,0.7712356301149194,0.15995363246785432,0.08098607438456243,0.20683235648441153,0.07530923558057571,0.17989511585618842,0.4093029822226676,0.3312911993815272,0.5891660588086213,0.3296593479793941,0.7181688527037113,0.9796784697040348,0.4452030933604395,0.9722616842926279,0.6485961262050034,0.9468514256739318,0.9506546674746662,0.8386715011013083,0.941298611888593,0.5807908916238901,0.6131014945827202,0.2623804783904218,0.9099655827136106,0.5481334772338234,0.9856895168984188,0.9080980347678845,0.4001577654333196,0.9643833999403771,0.4781890948023869,0.8786513194973162,0.5763596808526431,0.5166029614619665,0.751688090915251,0.747385551969723,0.5554882408431356,0.5947384904390705,0.5580962283247474,0.32423124793565217,0.5558602243590521,0.5980395485752829,0.4382730018635394,0.9626439862155112,0.7805674484546874,0.5356829610567245,0.6424802899843074,0.5491421342493986,0.5643001902218013,0.4912111315089293,0.5028912461178233,0.034992234812686374,0.2949202986768957,0.37506654066186923,0.5830808111946617,0.5420286425649924,0.4326013561496165,0.5251510142196127,0.2700855606898577,0.9640394210085449,0.4901610940629716,0.2244245445908415,0.7180178546711269,0.04203368359023561,0.5578566163924286,0.3705676444126987,0.9744278019347432,0.9714329531553618,0.2808156694629109,0.611954950259499,0.8114492221696029,0.13175977658127133,0.8148165331085327],[0.24546199074379027,0.8749470287825062,0.2429316022009175,0.19026905372564779,0.32461607860157904,0.7891394992254723,0.8423539968580049,0.08059849244773018,0.3963303614602412,0.6121716394163828,0,0.4068145583703774,0.3316504789522711,0.2256314447629406,0.8789411534145775,0.5252409888052751,0.8453512665718271,0.6550659510732951,0.29419635810190514,0.860518526399594,0.7104883025602252,0.5543188797969966,0.7415312488561323,0.6715859686598199,0.49171576744616974,0.28724124221551467,0.7989261590494718,0.28057456063157565,0.36276006645822506,0.8876836686933931,0.593909108391812,0.2497967634259257,0.6946412280362738,0.08365445638019091,0.4666377036752127,0.7793174607131949,0.8599650110747544,0.4343925909499603,0.8595351923352469,0.04128964696914241,0.7727206217405262,0.81089070088011,0.07186794800968711,0.6782498283609922,0.373004410399626,0.20384629289951575,0.7547269612197609,0.17770272006137747,0.8148127245152278,0.04468228534217623,0.1384894072439981,0.8916678562418096,0.12551668097268429,0.04644090008578737,0.09270323444949627,0.043955219777962545,0.2775054666475279,0.06512539415472393,0.042252857652072644,0.28242633611586626,0.5090773639991284,0.16020093702674282,0.15600343743465026,0.028023711776056105,0.8725380848514163,0.20419314665418709,0.8608757179662098,0.2372261933027566,0.6433061454197793,0.3722488655102513,0.29190327260503757,0.13201006079082434,0.1464844720383556,0.8392919070031133,0.1864482154298552,0.3747810771017497,0.5453699066070558,0.20516719975239198,0.4470961339894784,0.10374530630789386,0.577130478536267,0.10509302272302047,0.8089827438592979,0.6307171857851451,0.7263663760171566,0.7826068616996479,0.10259255855523225,0.2004221508529461,0.7015535993525829,0.8634031436573212],[0.15407397480331106,0.8164424665022747,0.6581761342197706,0.3681449436975487,0.09482469776043119,0.977085801391538,0.9465821586217826,0.454785516663149,0.01221921557314726,0.2703991037604833,0.4068145583703774,0,0.7352805610743393,0.18712948815882313,0.8455471211475131,0.14315090733909686,0.9667535544534603,0.3352325868408211,0.7044425141391044,0.9020810425595459,0.42848826602953616,0.1830397122212586,0.4732497673646074,0.35370039115587476,0.08914769136119415,0.13781959028414692,0.5819500013135177,0.5127483200947218,0.05037550988875401,0.8785381879450427,0.916097600134197,0.17887405061505202,0.9580238123361973,0.41274152269416914,0.8357038124742298,0.9823065812315732,0.9457004904211481,0.8161586026453754,0.77563154426328,0.4274678635296757,0.5239824166493114,0.9704198207433554,0.369845829728184,0.9587169993530417,0.7665115105218351,0.24009043488125476,0.9800159595263064,0.23232128999253945,0.9521621790077283,0.39055341880871464,0.2756071880731374,0.9022532447319068,0.5304014600583762,0.352844870536548,0.43177232191707926,0.3594637615137242,0.17225573002499464,0.33563243067549076,0.3753925261121894,0.37749395212145914,0.8655490110117132,0.5751555147112895,0.4032970126228534,0.4436599079966593,0.7596431205981383,0.45512263157768473,0.7157895115062893,0.4148548622323852,0.3144978441362751,0.024423000416463073,0.3125704587784998,0.33315016706026984,0.292232290764012,0.6673395333045431,0.26538522477816834,0.03260007245294599,0.8839851593418322,0.22997950238027173,0.038543248726289836,0.4933680700125976,0.21957916665209742,0.3196322438613353,0.6129204245517411,0.9301737251028047,0.9717551427963045,0.5406083287187644,0.36914058358411517,0.6176721641833788,0.405209510993454,0.9316928797298357],[0.5708039164576851,0.9384197601753861,0.09961268629849414,0.3958954920120913,0.6631437099900025,0.6496647480713821,0.7745068449377784,0.33615274717939203,0.7213025474188355,0.8915621648519196,0.3316504789522711,0.7352805610743393,0,0.5399957817752159,0.9221946364574941,0.8314722434717815,0.7610278697187803,0.9186518451750157,0.0387779691278459,0.8451464894086884,0.9469564849557534,0.8532235915546943,0.9662066111396217,0.932233174548534,0.809009593314978,0.6279447340101554,0.9848088070690507,0.33072738821573083,0.6981097245835327,0.9101098493522513,0.33634917515890556,0.5916286159038999,0.49076347518218744,0.380397131751825,0.1653765469481877,0.6260640744864929,0.8058939790256346,0.11729003395576187,0.9446795328340637,0.29931212755319875,0.981784841893935,0.6960154693598155,0.35506520231996214,0.4572600768922467,0.04633027583002557,0.49615112242094234,0.5822488154364347,0.5192565348886223,0.7207965999176056,0.3350787358550371,0.4805595849396373,0.8972619886577305,0.2649937131903255,0.3775216331913806,0.2951475176286563,0.3692785646259488,0.5754774636999959,0.4070586729165761,0.37873765107961005,0.4579075733280577,0.21922817908394907,0.2092158284497161,0.345509797798075,0.2933181089872144,0.9770547689880018,0.3228140423362452,0.990069657015519,0.38839011938804874,0.9128125897856637,0.702011451343254,0.510965555701998,0.46201235463546236,0.48569225125212506,0.9900570911082548,0.525892364786998,0.698358091814293,0.27491777933105976,0.5470280955276906,0.7698807442529404,0.3059242314481658,0.8676657724674595,0.44473896081799846,0.9800262728430074,0.39561886626048154,0.5370088908305412,0.986281480122725,0.4231665823321465,0.15460646856625862,0.947086698690081,0.8242946740382291],[0.03213504314355469,0.7594250719996393,0.4686991866667249,0.178526463244545,0.14464602997484402,0.8217265274581168,0.8206481363017246,0.2932724050646437,0.17143526821615798,0.37912511453570225,0.2256314447629406,0.18712948815882313,0.5399957817752159,0,0.7770147869222298,0.28958742403554694,0.8346987343253399,0.42687472351393174,0.5114189699189335,0.800788029847196,0.4935011428354,0.31825895987687314,0.5297249739000309,0.4442392162902156,0.25984180198667456,0.1347148633396461,0.6072593031775368,0.32786869130998786,0.16268783716194993,0.7994204891391986,0.7249626609822726,0.13195304942393282,0.7801948460884891,0.2606884145370977,0.6384757223144077,0.8222098379132378,0.8270801428833189,0.6185934719666923,0.7303466257044237,0.2363670186963762,0.5684414562882707,0.8245556967443541,0.17507971802323608,0.7766887537959889,0.5695606701026257,0.04859657015561897,0.8130636748236238,0.11160428179924684,0.8138330148549371,0.1987360179796429,0.13793437861828053,0.8147044896413632,0.35906985811021974,0.16883598685010298,0.2350432793940204,0.17308679588176892,0.05051747290203397,0.16634075382858263,0.20849561558757862,0.2148911890405432,0.6693579999782656,0.39611137425063003,0.20765176075063843,0.25907320367970504,0.7292893971141424,0.2628600843251294,0.70196549555661,0.23263290126930594,0.4130533513385889,0.15602389362453223,0.16697375780192214,0.20642330498764938,0.16920961532634618,0.6676065113701062,0.16946603478809397,0.14825211592673096,0.6900104150831065,0.1438807617659932,0.21944817878839884,0.32852381383268947,0.3418143554332962,0.1738103704515205,0.6260459682059383,0.7435515391088965,0.7989222756811315,0.5810300692062434,0.22809391167309329,0.4327875421880625,0.48027784440756216,0.8198548276394426],[0.8094681357074387,0.0445871676936461,0.9520868050827936,0.6800850835913363,0.8943779207796799,0.466898413739084,0.2855541387737384,0.9690963154850206,0.824239761035455,0.6737427542421786,0.8789411534145775,0.8455471211475131,0.9221946364574941,0.7770147869222298,0,0.7640263731832838,0.3261883511419861,0.6237691137405256,0.9400117171803537,0.14925083612949663,0.539586879427268,0.7391313714897322,0.505899478316225,0.6165586253841626,0.8074790485811725,0.9077352517294063,0.39131365655374806,0.6180273463982104,0.8786513194973162,0.04524957956251674,0.750270502580375,0.9171994302363363,0.6254662950205442,0.9673267120232665,0.8460203534059195,0.5005572063664809,0.24831908339464034,0.8768191149199659,0.10318192125085456,0.8391044762496707,0.4605904267596011,0.40536827882285575,0.7991801555974116,0.664842777381084,0.896449054958289,0.7376357227302298,0.5479909097655249,0.8928899571647356,0.3544448138885337,0.8238794421152846,0.9032479373607648,0.0899544934625312,0.9820044439235439,0.8472662699787666,0.7870520922344867,0.8407677127752421,0.728958260371914,0.8815383733880648,0.9080889099075545,0.5906760025016586,0.8214885449857703,0.9740349215284047,0.713444322478784,0.880331278728908,0.16054288604229472,0.6767771806258228,0.23048012404642718,0.6317278701173421,0.643070923035094,0.8449300273776558,0.6075306214899723,0.9615721135501026,0.93646809525068,0.2907053940455011,0.9501509107788525,0.8134379435737863,0.7807512009855047,0.9297670883341327,0.8242836917266747,0.9827009365644814,0.7098576809632137,0.9197540286545519,0.3469044268745684,0.6998962515898723,0.5895573246838995,0.44506798585023266,0.9618638984351544,0.9645497024677935,0.5690370422772969,0.20968752218636105],[0.27223321917069615,0.7278337679164957,0.7670776566496549,0.4344179090762967,0.24705272619647167,0.9686076659039176,0.9085382016269431,0.5861799260893944,0.13815135079784707,0.12097712916875039,0.5252409888052751,0.14315090733909686,0.8314722434717815,0.28958742403554694,0.7640263731832838,0,0.9339964273170873,0.18857060073118115,0.8067434714440627,0.8438147012378472,0.28808472799532997,0.03011857684997842,0.3345408559323445,0.20652352753443076,0.04848554790167227,0.2884144444460387,0.4534475935943928,0.5608555455458419,0.20378272363714825,0.803704442807723,0.9642286244439134,0.3272883093289012,0.9798096706357713,0.5478243786457347,0.9086932361051249,0.9793292212041264,0.9010184102464203,0.8964759141909534,0.6805582978618971,0.5352377085407525,0.3885792116897,0.951564467593989,0.47201789204621875,0.9874328560166004,0.8551502274652663,0.325440567836995,0.9857589304330968,0.3702753677197469,0.9259573294271345,0.4975962234073595,0.4116104537057221,0.8330946389719373,0.6567722416202307,0.4686292102108937,0.5267936037182634,0.473104621389827,0.24584143818917137,0.46106173132381545,0.5028749181913899,0.4109545965324539,0.9312713235804877,0.6958704893917353,0.4798586695271922,0.5590978185565735,0.6556564344199783,0.5200505616941459,0.6034414293540287,0.46609222165748215,0.16630963687704062,0.17166410442172242,0.3425385820960482,0.474748506119072,0.4332978228923474,0.5487619347976274,0.41135469135921376,0.1521119448844598,0.9406951751195829,0.3757833454628989,0.09511294044265194,0.6233973141266361,0.06858189063405302,0.45481422878192695,0.4894684015214997,0.9679760988689875,0.9857578787489603,0.40641764587594736,0.5074089272845602,0.7326529237148093,0.26165274615868517,0.8814420538866814],[0.8753146656701886,0.37755876323244625,0.825472394385562,0.6767146718363579,0.9811027627272395,0.14624393618946555,0.030196000263296364,0.9249237827307116,0.944096069406345,0.8810190646442548,0.8453512665718271,0.9667535544534603,0.7610278697187803,0.8346987343253399,0.3261883511419861,0.9339964273170873,0,0.849448752846597,0.7934762858089465,0.1676148087311101,0.790053563942504,0.9212429442347079,0.7690357688628905,0.848292935190435,0.9617197681862971,0.97946681865578,0.6809417882914207,0.5543471694494831,0.9806884802890093,0.27618895760636447,0.49365860160164493,0.9742043820662436,0.3347715869117446,0.9394295226841718,0.6346184731814151,0.18251374198892767,0.07023515789830824,0.677400052146503,0.42816591296619494,0.7958670869863551,0.7370707542151484,0.07889954241436195,0.7800189167572055,0.379336845698467,0.7194112412642839,0.7807290205125957,0.23756438284918185,0.9275302273713375,0.03260007245294599,0.7956032729193756,0.9220702158324967,0.23491841236286815,0.9098423548388314,0.8341397718362463,0.742407443190483,0.8249749818715114,0.8059636007335194,0.8760432773885324,0.8886758358408997,0.6109559423787635,0.5948423537421265,0.883153992094876,0.6874949364906277,0.8321414715788953,0.4869760940619951,0.6318012827297651,0.54948044432242,0.6167657896969415,0.863283241339359,0.9542626558416551,0.659627120863409,0.9641125266902718,0.9518769787049173,0.5995099209597305,0.9777030640365442,0.9267033038268347,0.5411955059574064,0.968504930209442,0.9616227713176329,0.925201522371298,0.902276202566797,0.922929306588689,0.6425877904708401,0.430728643499875,0.28829172020672805,0.7258073456771963,0.9503480288619198,0.8556157929524935,0.8143771593975513,0.1089726354179607],[0.4253195247246185,0.5799929332672291,0.8735993977471158,0.5131466670938989,0.4329080780974651,0.9139580044651522,0.8181562516279756,0.7298107697931885,0.3245222582306292,0.057780515755707244,0.6550659510732951,0.3352325868408211,0.9186518451750157,0.42687472351393174,0.6237691137405256,0.18857060073118115,0.849448752846597,0,0.9029807273223316,0.7300470893696976,0.09270323444949627,0.14898818926251323,0.13950599077340942,0.008099190954638026,0.24736989865557976,0.47019031729687727,0.26628397792380704,0.6036525922631746,0.3934483278995045,0.6704317354291486,0.9831884545271806,0.5044156195847008,0.9638770637773283,0.6979455770313078,0.9623123166722799,0.9313814580371393,0.8024410570699796,0.960223862328344,0.5263590314486997,0.651595077475033,0.19557164995766782,0.8841901223708224,0.5866499201232547,0.9802338385671965,0.9314203913799142,0.44098261361782387,0.9488357550940938,0.5324369574928467,0.8500918262793609,0.6157439227993601,0.5691016742295688,0.7059270272479533,0.7909600495238596,0.5989961239360132,0.6286660235669302,0.6006853860544534,0.3689935785992751,0.6031303116541354,0.6450586324179727,0.4558938695739445,0.9745001365537265,0.8209295221021832,0.5647211233405923,0.6833375761586353,0.4912633407628539,0.5871725787615273,0.4306128567008699,0.5233875909998056,0.012902511299242456,0.3578657085655623,0.39751086109219164,0.6366374099363175,0.5960873260826691,0.3702402794366693,0.5817961151400909,0.3313678365101123,0.9717423425752715,0.5473432703314381,0.29048265455869715,0.7638085441515209,0.11002088656761264,0.6090423115891809,0.30711171554166933,0.9733091301892715,0.9595198707932066,0.21422881487977874,0.6634376150072787,0.8486125255308142,0.0636694167578991,0.7764840823914387],[0.5400547833369614,0.9536496744629369,0.051111844192479584,0.3795068195411991,0.6283499701858573,0.6874195009389547,0.8051158652503237,0.29127888584139816,0.6914392524168339,0.872744518180457,0.29419635810190514,0.7044425141391044,0.0387779691278459,0.5114189699189335,0.9400117171803537,0.8067434714440627,0.7934762858089465,0.9029807273223316,0,0.8699152051454896,0.9362689171638424,0.8302181857937809,0.9576386142123392,0.9171802300504431,0.7815310948421712,0.5917939070687133,0.982633683020042,0.3326504904485351,0.6647966193105694,0.9305732276818515,0.3830420037075535,0.5543193435732164,0.5338535711598215,0.336439796710256,0.21390681829859956,0.6651142316027493,0.8351151581632771,0.16638667836810875,0.9569866201506246,0.2665725137409869,0.9758923406814622,0.7314263559102039,0.3259151356713819,0.5017224874186943,0.09524189747468376,0.47087701521588665,0.6229570693210378,0.4823359488072483,0.7540211419280867,0.3034949109086754,0.442429092272146,0.9197987983717081,0.21792896352698962,0.3431146728281846,0.26972025183824827,0.33553024184849106,0.5504904147698476,0.36973630255845447,0.3390103834772049,0.4486990818237112,0.2674476343772746,0.16153267313435535,0.32782223545190897,0.2557445173161713,0.9868980412509768,0.31334877584813686,0.9964703214523127,0.37923805213914596,0.8960056182372834,0.6706640460447241,0.49724191179120486,0.41986128249163085,0.4454772097459602,0.9932813541933005,0.48554018477378225,0.6687817420263459,0.3221082942164014,0.5082337169154072,0.740805361708281,0.2596159136851902,0.8464927130263935,0.4049882689712589,0.9801151215854015,0.4408340542087912,0.5790583951231434,0.9812908236394278,0.38031134225780727,0.10640950793335273,0.934828054296256,0.8518441365814966],[0.8379293172519158,0.20233016099918552,0.8913330275273313,0.6713712594036019,0.9345797516860264,0.3150551661182473,0.12714638797582942,0.9471859884405252,0.8797712522791247,0.7712356301149194,0.860518526399594,0.9020810425595459,0.8451464894086884,0.800788029847196,0.14925083612949663,0.8438147012378472,0.1676148087311101,0.7300470893696976,0.8699152051454896,0,0.6576259089704162,0.8247128357271757,0.6301793556430865,0.7258813384321438,0.8799701255275341,0.9407733792066668,0.5283033382312796,0.578112582573745,0.9261721235854772,0.0981367107696078,0.6283315186605389,0.9431769467910657,0.48744136000239974,0.9531246504604589,0.7452296019286022,0.35014121682293325,0.08867314300487582,0.7818296797952032,0.2564628442122871,0.8153013504610431,0.5913845109650496,0.25062077133334365,0.7860043639751192,0.5295246762102126,0.8118095729354601,0.753307125650304,0.40108296029487966,0.9075754904741993,0.19922004629165072,0.8068832051306088,0.9104355754674552,0.05837685922890135,0.9470765776689936,0.8380148326313349,0.7614178690012371,0.830104767648317,0.7612631148069469,0.8766115629229031,0.896963285529707,0.5904476387623375,0.7136045945776028,0.930212429986752,0.6948076302453248,0.8549977071346987,0.3154926230149617,0.6478946836948729,0.38186870646269194,0.6157309559078882,0.7467936148667406,0.8955501114645469,0.6238830886261589,0.9618469271979357,0.9425505135997551,0.4370221008404028,0.9623144707353906,0.8655059538121669,0.6666091529520835,0.9470418371341344,0.8885488156468961,0.9546923524511965,0.8002625493229159,0.9196672987954484,0.486624224127011,0.5718700138031504,0.4467937741759025,0.5779470092241858,0.9554009474715892,0.9121720694382961,0.6847982114731119,0.050029973792045976],[0.49878731185953584,0.4926730250636407,0.9127410960398031,0.548823289879662,0.5211534073694991,0.8688688072885923,0.7562698926368175,0.7907730809237884,0.41544567746007266,0.15995363246785432,0.7104883025602252,0.42848826602953616,0.9469564849557534,0.4935011428354,0.539586879427268,0.28808472799532997,0.790053563942504,0.09270323444949627,0.9362689171638424,0.6576259089704162,0,0.2497202598048915,0.03644492662725896,0.07790896493561962,0.3461648290186959,0.5556400248318524,0.16444446928584155,0.6174481961108361,0.4843934328399311,0.5890546585593731,0.974981877259336,0.5868323764364619,0.9379340846917275,0.7628499093842783,0.9724301181303798,0.8894620294959485,0.7366182614116853,0.9756450817275479,0.4366830546039163,0.7003975463611588,0.09246170557714813,0.8330399883486953,0.6365273013519359,0.9585418569489375,0.9538292366074521,0.49743534396619954,0.9123120172401529,0.6067786925159188,0.7951313112086333,0.6664311749893782,0.640299181717902,0.6270907632602647,0.8459509297490212,0.6561340242083417,0.6709712359209291,0.6564168789770555,0.4331159846057048,0.6658969600914016,0.7069117098348325,0.4786177342512017,0.9790222040897927,0.870638769233446,0.6010076002479091,0.7352928541275693,0.39706696763088,0.6138336408115779,0.33320885994365806,0.5481334772338234,0.11602883415051243,0.4478351579750762,0.4295872619867375,0.7087597732038147,0.6694057746872719,0.2709627870655741,0.6593514875755838,0.419214972097568,0.9699860639368002,0.6260920559070272,0.38625331890904996,0.8225145945832167,0.21111549349303826,0.6777411542314159,0.2068817765985205,0.958205538025726,0.9283307544425402,0.11118937068870995,0.7320280753424203,0.8931010169447012,0.020809717675682154,0.707815550357842],[0.304368064942879,0.701224278784376,0.792465974816412,0.45189113752682775,0.2861517218349404,0.9621151997076582,0.8944960185978694,0.6182890189181153,0.17675925934340747,0.08098607438456243,0.5543188797969966,0.1830397122212586,0.8532235915546943,0.31825895987687314,0.7391313714897322,0.03011857684997842,0.9212429442347079,0.14898818926251323,0.8302181857937809,0.8247128357271757,0.2497202598048915,0,0.29641256665172255,0.16671816639473935,0.08886323448378465,0.32688789248118444,0.41749731459503586,0.572030119845851,0.24343866585419213,0.7804045186189271,0.9727082905688564,0.36501036079360694,0.9812612433877484,0.5810743507380953,0.9239782337840836,0.9742448141799624,0.8852575134393978,0.9137539751098898,0.6524479046747607,0.5615941216763237,0.3510908098181984,0.9424042865959432,0.4975838498745002,0.9906854548856835,0.8748002863290069,0.3496032876075673,0.9829501305858519,0.40518430417321766,0.9149650230625498,0.5240877783517645,0.44577297858740533,0.8111674586551847,0.6872622234922721,0.49749103877002676,0.5500751498059858,0.5014114593692569,0.2702871642936016,0.4923142019271878,0.5343634195739358,0.42076789112444896,0.9445404885788573,0.7246922851616039,0.49914877281186676,0.5872058871340031,0.6253019307249758,0.5359572247502131,0.571107106599482,0.47933914312978837,0.126413411899196,0.2104856675657123,0.3532426354752326,0.5100419424520304,0.46861827546633605,0.5150187409104138,0.44808428116891386,0.18909635709393527,0.9515394187555434,0.41260471581700175,0.13542587795055974,0.6549986475718476,0.028537824766878814,0.4885175943261245,0.4546954279254669,0.9737084215850973,0.9851298250093121,0.3691730136371021,0.5416743810425485,0.7597982002780878,0.22256144807077283,0.864294700884927],[0.5372791431606112,0.4572852771717914,0.9366008573694261,0.5732232327217817,0.5642637312937557,0.8548306302111265,0.734085411195349,0.8236345373150263,0.4596085103908005,0.20683235648441153,0.7415312488561323,0.4732497673646074,0.9662066111396217,0.5297249739000309,0.505899478316225,0.3345408559323445,0.7690357688628905,0.13950599077340942,0.9576386142123392,0.6301793556430865,0.03644492662725896,0.29641256665172255,0,0.12425278377333278,0.3924093893842637,0.597798447180324,0.11988034651836196,0.6322851881519472,0.5283884116001695,0.5568071241201501,0.9781132985245155,0.6279328355399129,0.9329430912845117,0.7972769637485677,0.9837745304449498,0.8769174120797031,0.7124217977815273,0.9892926300182363,0.40008950398520393,0.7289409025920363,0.046057403748000554,0.8160939593029348,0.6658117563962175,0.9554836553398436,0.9705575998741393,0.5300754373999041,0.902327855584057,0.6451033834397232,0.7763935440745188,0.6958671519065377,0.6774091910142362,0.5961516665924221,0.8763505039813678,0.6880632557722148,0.6971253785814696,0.6878172284298347,0.46894402382208084,0.699871177564467,0.7403893071107672,0.4985892479396224,0.9878726753123187,0.8988882681266094,0.6252306517944353,0.764903495810458,0.3576217017506109,0.6340790219477476,0.2917308280600331,0.5681608618800974,0.16284359488653777,0.49164065214698915,0.4539171230404134,0.7459820613764888,0.7071687104633044,0.2282925765467798,0.6986207784973874,0.4625082717712562,0.9760604201302826,0.6658613307611043,0.4317462599789812,0.8544200650855891,0.2578878724561098,0.713830290147722,0.1637797271467317,0.958225006613246,0.9208684073401594,0.06495883169266489,0.7679059133655245,0.9191940844005568,0.06628120679672558,0.682205951531048],[0.44322421963067304,0.5718740619702026,0.8884870470489198,0.5272439002677851,0.4514445003135725,0.9157560494430753,0.8164399324347096,0.7468973755962687,0.3430516970554601,0.07530923558057571,0.6715859686598199,0.35370039115587476,0.932233174548534,0.4442392162902156,0.6165586253841626,0.20652352753443076,0.848292935190435,0.008099190954638026,0.9171802300504431,0.7258813384321438,0.07790896493561962,0.16671816639473935,0.12425278377333278,0,0.2653852247781683,0.4886939424281348,0.25258785820563856,0.6149252270496454,0.41197024503906066,0.6640064002493961,0.9915379961060987,0.5228397457739303,0.9692431034498712,0.7153551473981621,0.9734369210666034,0.9338033851830043,0.7998489016559015,0.9721017520323197,0.5175031901595574,0.6674210674258187,0.18064911052664764,0.8847661098586319,0.6025323862819241,0.9863487503144472,0.944236550171895,0.4573855048445289,0.9522851591671261,0.5504637984564202,0.8498629082704983,0.6317421454492521,0.5869341067130566,0.7001826963920832,0.8075174751893504,0.6156435269533408,0.6437338969809857,0.6171945194012265,0.3860499055590378,0.6203066561253221,0.6621798437074476,0.46812595336797674,0.9848109124419884,0.8369658246039459,0.578978413353167,0.6995244753063571,0.4809584408438302,0.6002137558602447,0.4191082770514522,0.5360569228763346,0.029885414681622525,0.37640133526648156,0.4108625955810183,0.654561993443753,0.6140752620188727,0.3579204633902292,0.6000267179679852,0.3498941598787281,0.981097479602308,0.5656239058557898,0.3088219074353618,0.7807065083520113,0.12774665007616873,0.6267106249305437,0.2943029530887939,0.9805288507957872,0.9639512568620234,0.1994547786670903,0.6811220916771975,0.8640982529231608,0.04762582183034539,0.7732288083672197],[0.23587836202664164,0.7733865466469756,0.7388028366297062,0.4217144194647367,0.1944024584877554,0.9877992106311557,0.9380235626477966,0.546727315584298,0.08936837510016167,0.17989511585618842,0.49171576744616974,0.08914769136119415,0.809009593314978,0.25984180198667456,0.8074790485811725,0.04848554790167227,0.9617197681862971,0.24736989865557976,0.7815310948421712,0.8799701255275341,0.3461648290186959,0.08886323448378465,0.3924093893842637,0.2653852247781683,0,0.237158499961996,0.5093974095091566,0.556649648226693,0.14977483815148163,0.8451492445836559,0.9619945401063066,0.27763642296123786,0.9878139039999091,0.5063760892158079,0.8962691064627962,0.9965496561377093,0.9327609414023773,0.8809697028248851,0.7279430307773583,0.5064972000045475,0.44591132107727016,0.9744373759393551,0.4452030933604395,0.9928170159862042,0.8360083522817516,0.303277077578574,0.9997905323251969,0.3266175753217615,0.9513618800324317,0.4689156116389007,0.3691647338869574,0.8727943396863721,0.6200080158693959,0.43593202160470396,0.5034277378129473,0.4413816249906337,0.22548827495095627,0.42396320270839793,0.465033534979534,0.4106138437753305,0.9218904366238365,0.6619356422624847,0.46362122165026964,0.5270977414437507,0.705597889148682,0.5088590151350191,0.6556029544980998,0.4596887437038884,0.225203897417,0.12100104390858257,0.3421673696239108,0.4295872619867375,0.3883080201706684,0.6024610233860727,0.3634668397810113,0.10795050368594876,0.9349809939762322,0.3279019807512029,0.040204824604503725,0.5847329522050309,0.12750382067208596,0.41298840597526437,0.5442736553951715,0.969799040599896,0.9967129878746943,0.4635350227711771,0.4641651287083316,0.7015039350562251,0.3201872485923191,0.9150193640910302],[0.0937567968278901,0.8860443675588817,0.540060968618328,0.3158620737883175,0.03351537355364548,0.9661647734550607,0.9648465048212325,0.31892763023377285,0.13983402821993487,0.4093029822226676,0.28724124221551467,0.13781959028414692,0.6279447340101554,0.1347148633396461,0.9077352517294063,0.2884144444460387,0.97946681865578,0.47019031729687727,0.5917939070687133,0.9407733792066668,0.5556400248318524,0.32688789248118444,0.597798447180324,0.4886939424281348,0.237158499961996,0,0.6945502102151482,0.46527365172824015,0.07885262124866445,0.9335903273616577,0.8516743218108183,0.03215964493356217,0.9182503166327174,0.2741355962216559,0.7488454382214369,0.9659523390943172,0.9703557308320476,0.7225728561307624,0.8523242367657865,0.31937503977045545,0.6443233992065746,0.9696643616994274,0.27344538164009924,0.9122030130722049,0.6658880529347939,0.19155426858849842,0.9552818899408472,0.09946979374239356,0.9589158881455093,0.2860775314794958,0.1416634743673097,0.9513433618366517,0.39787602033294484,0.2404581714874759,0.33850258509634734,0.24928900283554964,0.1695286271898298,0.21186610155316352,0.24657623361298966,0.3600213100510488,0.7851172534472248,0.4472294981858612,0.3345165594832014,0.32565260869287077,0.8451247538284155,0.3943370939558658,0.8101722258955175,0.3733887903112659,0.4512811545385925,0.1063915741048618,0.3101351280101578,0.18977254353365564,0.15055764341011396,0.7686929502133992,0.11911435217942447,0.12878147527309466,0.8119322027339341,0.08475865222811933,0.18653865605307204,0.35803137030190574,0.3610464794921869,0.18407122809568865,0.720100305144986,0.87548172291301,0.939212486769109,0.6594484608685117,0.22831451832431723,0.494464871905502,0.5357501012628462,0.9620139328376464],[0.6219957350047123,0.33962146279217803,0.9693233061604039,0.6140685515809798,0.6650832137840266,0.783231821426214,0.6435565021529844,0.8857451404237925,0.5659239132062159,0.3312911993815272,0.7989261590494718,0.5819500013135177,0.9848088070690507,0.6072593031775368,0.39131365655374806,0.4534475935943928,0.6809417882914207,0.26628397792380704,0.982633683020042,0.5283033382312796,0.16444446928584155,0.41749731459503586,0.11988034651836196,0.25258785820563856,0.5093974095091566,0.6945502102151482,0,0.6439788870307759,0.6331957522410646,0.44477808813736075,0.9506688386272465,0.7203895827484981,0.8840366973231876,0.8647916130947633,0.9792561809390523,0.8088881244787137,0.6172667108739367,0.9913027044699382,0.2806546525035893,0.7787889683258259,0.06487888997605692,0.7375782996654275,0.7190422296774406,0.9114793985132141,0.9817080224990973,0.5965103801788847,0.8406298493923273,0.7275523770818291,0.6938711064217191,0.7490134142277219,0.7553151600604161,0.4865931338219557,0.9299865826216962,0.7490713521577471,0.7402930202289533,0.7471764214299425,0.5467136826475654,0.7671810685718645,0.8055281268531445,0.5292374370375228,0.9762420093399433,0.9455163875421129,0.6642032653150248,0.8174855261034374,0.23287415242749057,0.6612399414555641,0.16404412655502976,0.5965362718710034,0.2893280323111545,0.5960925081213954,0.49870243675712855,0.8234244270490002,0.7869072407334501,0.09935773134846025,0.7836894168548716,0.5653401187819981,0.9567897718096117,0.7530735458236676,0.5442864039707327,0.9131030471169421,0.3801343419141467,0.7878501102387172,0.03536544652701271,0.9225015445866719,0.8655585789908725,0.04658806527612398,0.8405633715669871,0.9589234537612115,0.19550934194317812,0.584030174716643],[0.3699677191077781,0.6242034300760303,0.33092386894852294,0.13935219449455652,0.4823651817282588,0.5057391570916404,0.5517143347554032,0.36211171607483394,0.4927266442722964,0.5891660588086213,0.28057456063157565,0.5127483200947218,0.33072738821573083,0.32786869130998786,0.6180273463982104,0.5608555455458419,0.5543471694494831,0.6036525922631746,0.3326504904485351,0.578112582573745,0.6174481961108361,0.572030119845851,0.6322851881519472,0.6149252270496454,0.556649648226693,0.46527365172824015,0.6439788870307759,0,0.4997076840012185,0.6179439883235655,0.39500497400724316,0.44687625576896056,0.4426349421719144,0.374662071498634,0.3482483632108584,0.5000202632914257,0.5705519636444145,0.3479298448106633,0.6212100230190218,0.2315129030933182,0.6438528006677433,0.5223390258990351,0.21849255711026352,0.4383949824329761,0.32869763009696007,0.2689966374190262,0.483268421677445,0.3864566280073388,0.5242038971924244,0.23142195292705067,0.3709929361788599,0.6158882136342444,0.3587386828333875,0.27264710258135305,0.17776396480740872,0.2629472821044904,0.33014880152685105,0.3157239803092839,0.324616078601579,0.141242721624131,0.3633049889453145,0.34595396836006537,0.12882662032952125,0.2691465690130899,0.6472355058240176,0.06855536932384294,0.653879861400771,0.08752484836378162,0.6019646718308752,0.486910795705012,0.20838432699445086,0.40391442268757666,0.3974209651175931,0.6503060429831006,0.42851929494028307,0.46998100893306244,0.36941925365417216,0.4271782770171904,0.5312507149968481,0.3667205218644734,0.5766434949136418,0.3642170246334429,0.638886084105106,0.4070662011729629,0.46410552262784965,0.6473641292083099,0.3868213991346166,0.33714658748991816,0.6213936919344953,0.5760761760264534],[0.12275292066532198,0.8523193794050772,0.6159149769746521,0.3511625263440477,0.034992234812686374,0.9814830737737286,0.9626859752698339,0.4035659775173881,0.058620023273322365,0.3296593479793941,0.36276006645822506,0.05037550988875401,0.6981097245835327,0.16268783716194993,0.8786513194973162,0.20378272363714825,0.9806884802890093,0.3934483278995045,0.6647966193105694,0.9261721235854772,0.4843934328399311,0.24343866585419213,0.5283884116001695,0.41197024503906066,0.14977483815148163,0.07885262124866445,0.6331957522410646,0.4997076840012185,0,0.9089679021105774,0.8980744832439232,0.12100104390858261,0.9504780555825829,0.3600276731446161,0.8078286642088821,0.9844971627517093,0.9643522318513309,0.7852950179968199,0.8141040202173926,0.3884630093287058,0.5778027622057623,0.978932198260197,0.3350173279135752,0.9483594534883061,0.7324132020621958,0.22068333341910393,0.9787585168099244,0.18072448344130687,0.9636587528027685,0.3526862196011261,0.22422372121465536,0.9304243040440223,0.48102026651040564,0.3112704361580636,0.39899257446361974,0.318879117747379,0.1674264175558676,0.28915672823132027,0.32708971228266237,0.3749279133435573,0.8405375176768661,0.5281010527359253,0.3801987149548254,0.4005428791020377,0.8013964126424334,0.4359860020747373,0.7607497602797293,0.40308678186889174,0.37322771168584906,0.026664980507419035,0.314771792207202,0.27770915075181146,0.23753058465015467,0.7147413995730081,0.2080824859463327,0.05802579786537112,0.8626222842335078,0.17317668540555095,0.09928852937282699,0.44251005564095286,0.27944914393142173,0.26794485526583883,0.6623001591803365,0.9163045050323223,0.9672498282106912,0.5939485460370787,0.3151621721777175,0.5729489789545017,0.46218030439844493,0.9525571833566231],[0.8335214751434892,0.10026761653277759,0.946120890131089,0.691195902075159,0.9224566238129767,0.421743510539954,0.23571135933244783,0.9769412404328898,0.856857589093196,0.7181688527037113,0.8876836686933931,0.8785381879450427,0.9101098493522513,0.7994204891391986,0.04524957956251674,0.803704442807723,0.27618895760636447,0.6704317354291486,0.9305732276818515,0.0981367107696078,0.5890546585593731,0.7804045186189271,0.5568071241201501,0.6640064002493961,0.8451492445836559,0.9335903273616577,0.44477808813736075,0.6179439883235655,0.9089679021105774,0,0.7199163553536058,0.9408262459329036,0.5876685062572781,0.9778056386236292,0.8245745173429007,0.45627115380841565,0.196807557531337,0.85773987859489,0.15865128571659434,0.8458432660750714,0.5128924806485153,0.35835465828865165,0.8093930609602861,0.6283922016711788,0.8814170913431167,0.7572135431533626,0.5056757251395726,0.9127751413711803,0.30703169809261494,0.8328946501439609,0.920700772977364,0.03445869398364297,0.9853642079689475,0.8590123814222276,0.7929342859249597,0.8520096661976643,0.7539036133498576,0.8948733651835022,0.9194228347608359,0.6040350601558047,0.797139135536371,0.9742307163288301,0.7213641109190074,0.8866997467792105,0.21622977492974946,0.6809448189889163,0.2860068567359366,0.6400371022187357,0.6891052857495119,0.8761023676942075,0.6265613843409354,0.9769139173599127,0.9536629865714072,0.3456679683734221,0.9693917406155033,0.8449545237081098,0.7537373977760812,0.95061651333295,0.8595532562198757,0.9884777661615685,0.7524135796609736,0.9348435710437858,0.4008079132209919,0.6667886311640722,0.5494149507251799,0.49779261289054677,0.974947588936098,0.9616569907623326,0.618014009849273,0.15778160511086817],[0.7654546118655754,0.7839651004815757,0.43722809670672913,0.537778161545038,0.8754131297688599,0.3504897151978356,0.5198312979252847,0.6364690009846513,0.8966919143666888,0.9796784697040348,0.593909108391812,0.916097600134197,0.33634917515890556,0.7249626609822726,0.750270502580375,0.9642286244439134,0.49365860160164493,0.9831884545271806,0.3830420037075535,0.6283315186605389,0.974981877259336,0.9727082905688564,0.9781132985245155,0.9915379961060987,0.9619945401063066,0.8516743218108183,0.9506688386272465,0.39500497400724316,0.8980744832439232,0.7199163553536058,0,0.8255654500519133,0.16196467773201267,0.6719069462323674,0.16471982833807874,0.3187422899408848,0.5591934665830212,0.21537770573854695,0.810755157585708,0.5452360573094812,0.9739146586796746,0.41119320808972354,0.5724998400538419,0.12004103547882221,0.2808156694629109,0.6676424352692989,0.26537382938568577,0.7567275237351403,0.45062037575597474,0.568380370703257,0.7289072485925708,0.6929463687944749,0.5831955385771157,0.6175470522023643,0.5093656657677685,0.6072118102193208,0.734226116621785,0.6585755867107566,0.6465995853923627,0.5428572109925409,0.11157637873562558,0.5347671117723815,0.5082761338346538,0.5621638960164398,0.8584057557515253,0.45172398251884965,0.8949968946484205,0.49256264520799575,0.9855916987070757,0.8886851577171093,0.6113823595846127,0.7363489489505125,0.74621367646467,0.9174893612048582,0.7842014658706414,0.8736847217407854,0.05180581854994681,0.7938453405203123,0.9364017072105423,0.616853897321017,0.9736189943936185,0.706014771870775,0.9303026423831774,0.05703932001902461,0.21299431917361186,0.9717850093300051,0.7047600987303883,0.48671063442239604,0.9860018397252853,0.5885786808077721],[0.09738385972527032,0.8978161328361745,0.5014692798665338,0.2992977522349555,0.07593011781588234,0.9542626558416551,0.9612357652428761,0.27719329583276753,0.1789902322362881,0.4452030933604395,0.2497967634259257,0.17887405061505202,0.5916286159038999,0.13195304942393282,0.9171994302363363,0.3272883093289012,0.9742043820662436,0.5044156195847008,0.5543193435732164,0.9431769467910657,0.5868323764364619,0.36501036079360694,0.6279328355399129,0.5228397457739303,0.27763642296123786,0.03215964493356217,0.7203895827484981,0.44687625576896056,0.12100104390858261,0.9408262459329036,0.8255654500519133,0,0.8985414036088879,0.23202872319525708,0.7172422381865285,0.9525299843955983,0.9685605800488872,0.6893478659533679,0.8663774499970565,0.2849624401938912,0.6728724241072355,0.9606123506099471,0.2436737811381875,0.8906801460870478,0.6310945417718532,0.18304512714865032,0.9395698663949306,0.062068751776845656,0.952040271662579,0.25335549441431593,0.1019208770583895,0.9567453603181706,0.35657840271170943,0.20609333011700456,0.30835229330960134,0.21547047763213234,0.1785250771555902,0.1742406015954551,0.20689021305584243,0.3528362186357291,0.7550431871067839,0.4067348293740816,0.3121680120525316,0.28825313931740343,0.8618707524833698,0.3731594376284356,0.8297993350079486,0.3585704994596306,0.48622780879531213,0.14624393618946557,0.3091531771258512,0.14720387749395847,0.1082951332882198,0.7906632328698835,0.07665490088937282,0.1655909409145332,0.7839522417700243,0.04217326363599383,0.227174166111687,0.31630245845633803,0.39811137169064253,0.1430963269328779,0.7441130436464239,0.8518881796734253,0.9214059838244113,0.6874435211038965,0.18596471754924576,0.4548575750946074,0.5681608618800974,0.9618921831722542],[0.8225318890894544,0.6660967593858934,0.5818597970264918,0.5923746762210395,0.9350840480681863,0.18314798199085855,0.36575746767098166,0.7522209390241401,0.9368464182373712,0.9722616842926279,0.6946412280362738,0.9580238123361973,0.49076347518218744,0.7801948460884891,0.6254662950205442,0.9798096706357713,0.3347715869117446,0.9638770637773283,0.5338535711598215,0.48744136000239974,0.9379340846917275,0.9812612433877484,0.9329430912845117,0.9692431034498712,0.9878139039999091,0.9182503166327174,0.8840366973231876,0.4426349421719144,0.9504780555825829,0.5876685062572781,0.16196467773201267,0.8985414036088879,0,0.7814500640041552,0.3299672625201478,0.14916552330644622,0.40712830410935963,0.3794013504272852,0.7016565957397726,0.6432873147172963,0.9191701356033528,0.24779218927368554,0.6557539455780519,0.034644989575959365,0.43843174519352524,0.7211693807349978,0.09394515820081738,0.8350721000281192,0.29238801670114534,0.6588354943331519,0.8141370558110926,0.5551345372674407,0.710691728406229,0.7065380916030347,0.5985545827355547,0.6961344715986886,0.7762750296519252,0.749723883265818,0.7461472112275871,0.5704852387005671,0.2800592858568184,0.66838945285872,0.5762708491970264,0.6683049479415865,0.7545759891471574,0.5149948141267908,0.8010165899753721,0.5372791431606112,0.9702670662170616,0.9348734954804727,0.6373255688885673,0.8340454899089073,0.8364810385055943,0.8334966469537318,0.8714743067837638,0.9149876655455336,0.22029770312569277,0.8748523590160263,0.9701965561025606,0.738981451637819,0.9753751773423855,0.7988306875092861,0.8569358028818033,0.09450571809167316,0.04073987503682468,0.9138707307531067,0.807672124034693,0.6260591364610588,0.9538422746137708,0.4404182921968055],[0.2664959155135438,0.961278623782358,0.2775600390149039,0.2768032891119848,0.3167030215675383,0.8816261677746156,0.9364113890896423,0.03671232391467675,0.40701851992298266,0.6485961262050034,0.08365445638019091,0.41274152269416914,0.380397131751825,0.2606884145370977,0.9673267120232665,0.5478243786457347,0.9394295226841718,0.6979455770313078,0.336439796710256,0.9531246504604589,0.7628499093842783,0.5810743507380953,0.7972769637485677,0.7153551473981621,0.5063760892158079,0.2741355962216559,0.8647916130947633,0.374662071498634,0.3600276731446161,0.9778056386236292,0.6719069462323674,0.23202872319525708,0.7814500640041552,0,0.5327032156700587,0.8710070144299509,0.9538289649804459,0.4952688208832313,0.9433755061359067,0.1338316065719162,0.8327166698944297,0.9044073314892662,0.15797611959043542,0.7628793766619639,0.42872212224939404,0.2582595203315322,0.8449493182965856,0.16998358734353902,0.9087795766915561,0.1358293411740286,0.1268662578124811,0.9829677959370509,0.11741301134379119,0.11094146954066875,0.18665164847079063,0.116444434257014,0.31982977384789985,0.08732411760316369,0.05025911136701862,0.3672285231672323,0.5789588606030198,0.17207786968577432,0.24788244545761137,0.10286104090370934,0.9535138261124756,0.29813282502571314,0.9379327037929265,0.32791514078968786,0.6837802773594004,0.3780667503834451,0.3666455129173852,0.07772199256088924,0.11333468344860646,0.9125240275304396,0.1495474356108644,0.38814574239520183,0.6200923472675547,0.18000104737125844,0.45800151741213185,0.07501549476931788,0.6084014266856518,0.08295034304631818,0.8782667902944781,0.7128285910378044,0.814934273447406,0.8439839322600186,0.03669009875443846,0.225203897417,0.7507719996561358,0.9569043115495497],[0.6752627918935881,0.8712886671908859,0.2720506216640202,0.46447848940415254,0.7786698179058635,0.505795478131445,0.6545982281362476,0.49239130018897825,0.8186833434640385,0.9468514256739318,0.4666377036752127,0.8357038124742298,0.1653765469481877,0.6384757223144077,0.8460203534059195,0.9086932361051249,0.6346184731814151,0.9623123166722799,0.21390681829859956,0.7452296019286022,0.9724301181303798,0.9239782337840836,0.9837745304449498,0.9734369210666034,0.8962691064627962,0.7488454382214369,0.9792561809390523,0.3482483632108584,0.8078286642088821,0.8245745173429007,0.16471982833807874,0.7172422381865285,0.3299672625201478,0.5327032156700587,0,0.47783518398241637,0.690460486116142,0.04024618286008247,0.8879842909272055,0.42353670986812464,0.989534418991,0.559937868618151,0.46511340377593774,0.29193099320229626,0.10866515765756452,0.5859480840363905,0.4286720206868857,0.6454025774055163,0.5923220996649002,0.4534662258081936,0.6117158735331973,0.8044450131747811,0.4295872619867375,0.5013833142859825,0.4000971600397892,0.4916703866299352,0.6608580716622425,0.5382175333358742,0.5181933347433781,0.4981532358068843,0.04382022400350151,0.3768587703067606,0.4229690114465654,0.4308075986059362,0.9285893562684422,0.3782069538355676,0.9537224812995273,0.4348116265807703,0.9605940088264556,0.8049119049456415,0.5624584002918964,0.6066161419407498,0.6234237604129738,0.9650997226564192,0.6631437099900025,0.7952977645229587,0.10247895612744296,0.6786209195580326,0.8634870654918095,0.4673042891020778,0.9317106721459677,0.5820883762904483,0.9664873600019244,0.22854588133943213,0.37926157668686095,0.9907325466494707,0.5709462958583803,0.3249161274045561,0.978117537785372,0.7146225613168432],[0.864647657326758,0.5469994344364637,0.7067583417360799,0.643109397903978,0.9761007761765276,0.02583686806181712,0.21805279827675564,0.8479717002490437,0.9601029675922461,0.9506546674746662,0.7793174607131949,0.9823065812315732,0.6260640744864929,0.8222098379132378,0.5005572063664809,0.9793292212041264,0.18251374198892767,0.9313814580371393,0.6651142316027493,0.35014121682293325,0.8894620294959485,0.9742448141799624,0.8769174120797031,0.9338033851830043,0.9965496561377093,0.9659523390943172,0.8088881244787137,0.5000202632914257,0.9844971627517093,0.45627115380841565,0.3187422899408848,0.9525299843955983,0.14916552330644622,0.8710070144299509,0.47783518398241637,0,0.26025527970055606,0.5251314525269116,0.5902972373803334,0.7277088762713099,0.8544209736306366,0.09318965845821413,0.7272588072340044,0.19417729114645255,0.5776437823909129,0.7641210623504112,0.04594138162148098,0.8956715252440653,0.1427821122875291,0.7362563503582791,0.881451451369118,0.41895641954564666,0.8177018873153452,0.7807886084341202,0.677744579622387,0.7707301703648226,0.8066947513305388,0.824272395484044,0.828065615558473,0.5994141538439707,0.43151637454057384,0.7817476876070053,0.6392732084634142,0.7584926513598915,0.6469036767363799,0.578386655417453,0.7017095595099525,0.583522390039954,0.9413294341506527,0.9636759613552429,0.6602553755104859,0.9117827723195827,0.9075857616768177,0.7430052597017508,0.9389675378775971,0.939924906824564,0.37345429448147427,0.936670550031917,0.986719705919766,0.8406172313155034,0.9622175331726821,0.8732675039020165,0.7760655883268774,0.25214136154521294,0.09912609126705894,0.8462444891792732,0.8907124090132365,0.7453765497264404,0.9095454587292535,0.2967708600792051],[0.8663317448787766,0.3009844130554709,0.8625919833732936,0.6809478496731268,0.9684257307524526,0.2242326503473663,0.031764295351886115,0.9430986651482411,0.9231133747715592,0.8386715011013083,0.8599650110747544,0.9457004904211481,0.8058939790256346,0.8270801428833189,0.24831908339464034,0.9010184102464203,0.07023515789830824,0.8024410570699796,0.8351151581632771,0.08867314300487582,0.7366182614116853,0.8852575134393978,0.7124217977815273,0.7998489016559015,0.9327609414023773,0.9703557308320476,0.6172667108739367,0.5705519636444145,0.9643522318513309,0.196807557531337,0.5591934665830212,0.9685605800488872,0.40712830410935963,0.9538289649804459,0.690460486116142,0.26025527970055606,0,0.730758069652374,0.3538269640650483,0.8121232776613628,0.6770145859890555,0.1575572452593674,0.7901242360569853,0.45089070551726906,0.7677130689124185,0.7757328315401399,0.31392987498294583,0.9267088935965063,0.10703546711640564,0.8081896488497002,0.9249879053518482,0.15468262552769557,0.9346360134619937,0.8436123157818751,0.7581369512136142,0.8349618116377874,0.7932745859228788,0.8842463325958285,0.900415893349587,0.6076984400556594,0.6540261196600738,0.9122015936621676,0.6975417008742247,0.8501368721202496,0.41288199775572165,0.645337077982507,0.47769354780745266,0.6223948473904476,0.8177047337966173,0.9358981130004006,0.6499396650045625,0.9714414893434834,0.9559694549941385,0.5305811002842233,0.9791640790079225,0.9070846212568698,0.6029851547902474,0.9671780288079613,0.9366782933445229,0.9466081582367005,0.8636560835835378,0.929630017689025,0.5771286954499941,0.49870243675712855,0.36284988962660475,0.66464299493843,0.9609130525137431,0.8887547774237845,0.7623918367157213,0.028645197355100762],[0.6537801034713375,0.8997873678879345,0.22604714386695662,0.4517217155948315,0.7542078484323387,0.5522242915041506,0.6958805017527069,0.4534272666894208,0.8000130933414205,0.941298611888593,0.4343925909499603,0.8161586026453754,0.11729003395576187,0.6185934719666923,0.8768191149199659,0.8964759141909534,0.677400052146503,0.960223862328344,0.16638667836810875,0.7818296797952032,0.9756450817275479,0.9137539751098898,0.9892926300182363,0.9721017520323197,0.8809697028248851,0.7225728561307624,0.9913027044699382,0.3479298448106633,0.7852950179968199,0.85773987859489,0.21537770573854695,0.6893478659533679,0.3794013504272852,0.4952688208832313,0.04024618286008247,0.5251314525269116,0.730758069652374,0,0.9137593597965007,0.39408659745483726,0.9978646610049072,0.604765649576896,0.4403189403497144,0.34203958216004887,0.060771143753895536,0.5682898616885892,0.476952506987047,0.617036336799091,0.6354722235631607,0.42608341648305886,0.5815966226873945,0.8394185843101377,0.3873504803331442,0.4728234125043536,0.37589251420082653,0.4634714686865764,0.645044647097114,0.507684003046834,0.48491876216726176,0.4940310062979983,0.09427585127720402,0.33324772893288884,0.40701851992298266,0.3974781155668206,0.9522805340914652,0.3676998254826889,0.9742051800845486,0.42798015392062805,0.9572944030929393,0.7844888336664502,0.5558051825051307,0.5720881249377403,0.5912369556985368,0.9824952054968605,0.631270891821342,0.7766717830690758,0.15313353627739823,0.6486533538607457,0.8461368624030611,0.4264043083676351,0.9235139343437444,0.5498381848369788,0.9807241555512218,0.27879787315024096,0.4282423440004839,1,0.5352089081575839,0.28003043229727487,0.9797493626889541,0.7535728601609235],[0.7588927876723455,0.04906940502636625,0.9619210058198261,0.6588354943331519,0.834410153726804,0.5586285426316788,0.3878979278053173,0.9505573714196208,0.755310029389355,0.5807908916238901,0.8595351923352469,0.77563154426328,0.9446795328340637,0.7303466257044237,0.10318192125085456,0.6805582978618971,0.42816591296619494,0.5263590314486997,0.9569866201506246,0.2564628442122871,0.4366830546039163,0.6524479046747607,0.40008950398520393,0.5175031901595574,0.7279430307773583,0.8523242367657865,0.2806546525035893,0.6212100230190218,0.8141040202173926,0.15865128571659434,0.810755157585708,0.8663774499970565,0.7016565957397726,0.9433755061359067,0.8879842909272055,0.5902972373803334,0.3538269640650483,0.9137593597965007,0,0.8243351504531838,0.35204803123072725,0.501196494047585,0.7777810985238365,0.7380190138211763,0.9251119379478079,0.6975372613948638,0.6335456263740614,0.8501490462670985,0.4517166149751349,0.8046150274438065,0.8654808361349995,0.20286129623957808,0.9725460328796679,0.822032719586314,0.7747847517848012,0.816664167353581,0.6775588227040874,0.8525877076130557,0.8829877831217707,0.5667435914617337,0.8694485731598823,0.9711221320089124,0.6981940017938396,0.8658025271595747,0.04862761899111522,0.6699745751744054,0.11692038931309712,0.6173568342389615,0.5468777258471226,0.7788769090471106,0.5711017019186645,0.927610645883791,0.8988986374537151,0.1775021431696293,0.908188137896772,0.7469568586699672,0.8343887619822471,0.8846397053320078,0.7497142355400025,0.9682798906643858,0.6206524701459963,0.8867347803109945,0.23552401131619038,0.7662738084222528,0.6705790541683256,0.33571189001758794,0.9325807005705509,0.968021874416539,0.4669999149272375,0.3164170696272298],[0.2631895650740588,0.8372785623025735,0.22189613987257797,0.15803676214314252,0.3535392347034233,0.737743554136264,0.7936655574421577,0.12144864237128451,0.4147735609405021,0.6131014945827202,0.04128964696914241,0.4274678635296757,0.29931212755319875,0.2363670186963762,0.8391044762496707,0.5352377085407525,0.7958670869863551,0.651595077475033,0.2665725137409869,0.8153013504610431,0.7003975463611588,0.5615941216763237,0.7289409025920363,0.6674210674258187,0.5064972000045475,0.31937503977045545,0.7787889683258259,0.2315129030933182,0.3884630093287058,0.8458432660750714,0.5452360573094812,0.2849624401938912,0.6432873147172963,0.1338316065719162,0.42353670986812464,0.7277088762713099,0.8121232776613628,0.39408659745483726,0.8243351504531838,0,0.756982858829082,0.7601381780268449,0.05458821238089216,0.6273864979094331,0.3360839710810185,0.20278269302270263,0.7029989683148866,0.21255781223264436,0.7648065372223425,0.027225485528266397,0.17774169629692216,0.8483319755012434,0.14156873423331298,0.06854210532908317,0.04360740652299486,0.05971876530934342,0.2810961121265361,0.10449295014721127,0.09251005668400153,0.24983701945746625,0.4639884963213857,0.15981984634148227,0.11583815291475955,0.031038120259665472,0.8399426612602684,0.1571013710096956,0.8316974520682039,0.19737297663100786,0.6414525262250801,0.3936532023833576,0.26965947655980654,0.1815175234239755,0.19122723888405013,0.8133133122050057,0.23020599942976477,0.39229234108030764,0.4980770111383722,0.24466547010895298,0.4645176449543506,0.13363539992030474,0.5815130016467831,0.15052510253169737,0.7862121787076691,0.580595934623262,0.6747389032642176,0.7658326023700809,0.15408034310454496,0.18813976078983305,0.6936267365544412,0.8165134172414036],[0.5789250861430577,0.41030020710384135,0.9580473412443129,0.596883545320279,0.6122612383260736,0.8306614291991485,0.700904379188882,0.8569454658719586,0.5094301589567818,0.2623804783904218,0.7727206217405262,0.5239824166493114,0.981784841893935,0.5684414562882707,0.4605904267596011,0.3885792116897,0.7370707542151484,0.19557164995766782,0.9758923406814622,0.5913845109650496,0.09246170557714813,0.3510908098181984,0.046057403748000554,0.18064911052664764,0.44591132107727016,0.6443233992065746,0.06487888997605692,0.6438528006677433,0.5778027622057623,0.5128924806485153,0.9739146586796746,0.6728724241072355,0.9191701356033528,0.8327166698944297,0.989534418991,0.8544209736306366,0.6770145859890555,0.9978646610049072,0.35204803123072725,0.756982858829082,0,0.7886712585788533,0.6950497347622635,0.9439388271541547,0.9829878338656152,0.5642331951617214,0.8827529272600255,0.6861621670845187,0.7470339722126744,0.7251709855975561,0.7167410296131536,0.5535466278597138,0.9063189690045833,0.7205805794112483,0.7222855128674242,0.7196570257895794,0.5074858013962756,0.7349938998591238,0.7747367172972681,0.5174595300069652,0.9905742572083408,0.9260252969693337,0.6483496725737753,0.7941774426873239,0.3066387424671449,0.6522455712249191,0.2388789388444348,0.5865064597872955,0.21887779648406264,0.540842609504804,0.4784918603932852,0.7852858015519285,0.7472998327125631,0.17451270530126115,0.740834647733054,0.5110238236732314,0.9754237974662862,0.7088446232751472,0.4837774579978676,0.8864027826506885,0.3128598130011171,0.7516963389848449,0.11008175311513922,0.9503480288619198,0.9042068989497548,0.008504507403547065,0.8053483499023749,0.9435204860187483,0.12275292066532197,0.6452983343909021],[0.8662708010146074,0.4542779767260581,0.76771980076284,0.6555714937144971,0.9752508264443475,0.0569149944027195,0.11546424568356779,0.8860125209829735,0.9478643297295979,0.9099655827136106,0.81089070088011,0.9704198207433554,0.6960154693598155,0.8245556967443541,0.40536827882285575,0.951564467593989,0.07889954241436195,0.8841901223708224,0.7314263559102039,0.25062077133334365,0.8330399883486953,0.9424042865959432,0.8160939593029348,0.8847661098586319,0.9744373759393551,0.9696643616994274,0.7375782996654275,0.5223390258990351,0.978932198260197,0.35835465828865165,0.41119320808972354,0.9606123506099471,0.24779218927368554,0.9044073314892662,0.559937868618151,0.09318965845821413,0.1575572452593674,0.604765649576896,0.501196494047585,0.7601381780268449,0.7886712585788533,0,0.751085740541465,0.2927095968068072,0.6513339093670264,0.7683002038981903,0.14855387336700146,0.9090248764818221,0.040964565993636376,0.7638180162533241,0.899534396978974,0.3191971023225034,0.8641099332277977,0.8053127108375967,0.7078447228565018,0.7956851554898446,0.8017667057810324,0.8481867853719799,0.8569022835503246,0.599228589099548,0.5173439123888165,0.8332135539460828,0.6598272260443788,0.7941982759002854,0.5591217320690425,0.601213608350686,0.617888549081613,0.5951213980981529,0.8962067082771099,0.9549943556506632,0.654128993649084,0.93646809525068,0.927822828308845,0.663650188603682,0.9563065518240531,0.9290770746102809,0.4616990214179505,0.9502196204288207,0.9697477365341013,0.8828913267004439,0.9266664105107697,0.8962875939894631,0.7018331263246399,0.3466081847142071,0.20005788528007232,0.778892836884419,0.9193335386692364,0.8016825337556631,0.8554007382538275,0.19497959828640665],[0.20547918175496804,0.7940381067075079,0.28464750679451833,0.10892875851538475,0.3035307846576369,0.7342050125027567,0.7746353015054712,0.16272414274326713,0.3558376012309782,0.5481334772338234,0.07186794800968711,0.369845829728184,0.35506520231996214,0.17507971802323608,0.7991801555974116,0.47201789204621875,0.7800189167572055,0.5866499201232547,0.3259151356713819,0.7860043639751192,0.6365273013519359,0.4975838498745002,0.6658117563962175,0.6025323862819241,0.4452030933604395,0.27344538164009924,0.7190422296774406,0.21849255711026352,0.3350173279135752,0.8093930609602861,0.5724998400538419,0.2436737811381875,0.6557539455780519,0.15797611959043542,0.46511340377593774,0.7272588072340044,0.7901242360569853,0.4403189403497144,0.7777810985238365,0.05458821238089216,0.6950497347622635,0.751085740541465,0,0.6440177087332514,0.3871192998311747,0.1380667164440798,0.7071763752615275,0.17381463508979844,0.7514681094546477,0.019682980815587114,0.1481447961274908,0.8148000290772649,0.2009035568193199,0.04382022400350151,0.05462042767307998,0.03452864527752039,0.21687594886578604,0.08681643859224335,0.10052284131936619,0.20060466840494884,0.5013833142859825,0.22421144310237995,0.08224935841799784,0.08872598274521643,0.790321823122939,0.13950599077340942,0.778628658705665,0.15995363246785432,0.5764346639439525,0.3368050635746842,0.21065158518427302,0.17498792597699278,0.1708510786173224,0.7575110099364938,0.20530321624525066,0.33295801112099627,0.5299072626771076,0.21125731217169819,0.40472022552437603,0.18490565925595742,0.5169209231438427,0.13559098429361993,0.7280849064674687,0.6017529267082407,0.6832261959295258,0.7043600729318917,0.16037276380367665,0.2529431183198256,0.6292706395747432,0.791606911964345],[0.8187120900344886,0.7041827005013966,0.5519244277444858,0.5879141271859242,0.9309631011354182,0.22823003141394102,0.40973955932988176,0.731732746763743,0.9379418176878547,0.9856895168984188,0.6782498283609922,0.9587169993530417,0.4572600768922467,0.7766887537959889,0.664842777381084,0.9874328560166004,0.379336845698467,0.9802338385671965,0.5017224874186943,0.5295246762102126,0.9585418569489375,0.9906854548856835,0.9554836553398436,0.9863487503144472,0.9928170159862042,0.9122030130722049,0.9114793985132141,0.4383949824329761,0.9483594534883061,0.6283922016711788,0.12004103547882221,0.8906801460870478,0.034644989575959365,0.7628793766619639,0.29193099320229626,0.19417729114645255,0.45089070551726906,0.34203958216004887,0.7380190138211763,0.6273864979094331,0.9439388271541547,0.2927095968068072,0.6440177087332514,0,0.4036210146702597,0.717829422753397,0.1386651747525378,0.8255153203402723,0.33680506357468415,0.6451341479951442,0.802594416441419,0.5968123812295115,0.6865512173821996,0.6934916830290409,0.5848280012036459,0.6830555040625972,0.7762523900347122,0.7362731873200664,0.7303158642717413,0.57292383631621,0.2405166253551306,0.6422283165010032,0.5681124229465053,0.650253715710862,0.7899563795961698,0.507530302246203,0.8343900020981709,0.5349385904714888,0.9856569119019608,0.9343646511577846,0.64072448397551,0.8190610760383923,0.8236081586627033,0.8647482193584513,0.8595580731924325,0.9157085390389632,0.1803404566966092,0.8646958447422232,0.9730673470327472,0.7165547887138628,0.9865063970398442,0.7851067180050161,0.8858512255350893,0.053154584958068456,0.08514306626505246,0.9393680296140177,0.7911074363243397,0.5979637841466321,0.9733123251635203,0.48363699516736225],[0.6026776503399847,0.9155532648269185,0.15492355784893255,0.41326605498781066,0.6993374070818205,0.6025699873398869,0.7348768851121124,0.3857882206644113,0.751432356467908,0.9080980347678845,0.373004410399626,0.7665115105218351,0.04633027583002557,0.5695606701026257,0.896449054958289,0.8551502274652663,0.7194112412642839,0.9314203913799142,0.09524189747468376,0.8118095729354601,0.9538292366074521,0.8748002863290069,0.9705575998741393,0.944236550171895,0.8360083522817516,0.6658880529347939,0.9817080224990973,0.32869763009696007,0.7324132020621958,0.8814170913431167,0.2808156694629109,0.6310945417718532,0.43843174519352524,0.42872212224939404,0.10866515765756452,0.5776437823909129,0.7677130689124185,0.060771143753895536,0.9251119379478079,0.3360839710810185,0.9829878338656152,0.6513339093670264,0.3871192998311747,0.4036210146702597,0,0.5222937954455498,0.5321802227153194,0.5585903394261822,0.678435018731042,0.3700558407712094,0.5215124723875673,0.8662779711008646,0.31761687184666126,0.4150451204177417,0.3243008943899031,0.4061668687328576,0.6006789571814702,0.44756588410036197,0.42217782562142664,0.4662642284707626,0.16264395775734874,0.2628667928343245,0.3652286528535431,0.3352697130275969,0.9601966083565486,0.33394890220659196,0.9771035716450583,0.397760539551891,0.9269268686136829,0.7339686054933103,0.5238451702594794,0.5078053135845189,0.5290690010941071,0.9807294406660461,0.5692611893882837,0.7282409382533087,0.2190456360117544,0.5884461789559942,0.7989018876916453,0.3574330725405573,0.8870418490607609,0.4877784586861919,0.9743317907975142,0.3413612358569189,0.4856452634629339,0.9864275767934738,0.4699744665772846,0.2091776675426594,0.9557862244402542,0.7879170405068071],[0.09106756758150696,0.7231871926518382,0.43247127503617294,0.12004103547882221,0.20365063485669826,0.7641724601938551,0.7678695693741803,0.2831382610843142,0.2223995176889862,0.4001577654333196,0.20384629289951575,0.24009043488125476,0.49615112242094234,0.04859657015561897,0.7376357227302298,0.325440567836995,0.7807290205125957,0.44098261361782387,0.47087701521588665,0.753307125650304,0.49743534396619954,0.3496032876075673,0.5300754373999041,0.4573855048445289,0.303277077578574,0.19155426858849842,0.5965103801788847,0.2689966374190262,0.22068333341910393,0.7572135431533626,0.6676424352692989,0.18304512714865032,0.7211693807349978,0.2582595203315322,0.5859480840363905,0.7641210623504112,0.7757328315401399,0.5682898616885892,0.6975372613948638,0.20278269302270263,0.5642331951617214,0.7683002038981903,0.1380667164440798,0.717829422753397,0.5222937954455498,0,0.7543832082498794,0.14512325272774676,0.7588141390131274,0.16580507407830514,0.1576320651544829,0.7703491835283979,0.33980098909643064,0.14846159314116464,0.19095690955368955,0.14946064300209821,0.06917628444608138,0.16049998829216439,0.20011262749030334,0.1594178557089565,0.6150512822009914,0.3701824799190394,0.15285147136160954,0.2322133728318815,0.7005850724101266,0.20555559106140883,0.6782498283609922,0.17360412845232354,0.4297205756716273,0.2110019731554041,0.12023360139797577,0.22197165970070828,0.19102452589283322,0.6484387245221327,0.20207888570612337,0.19902006685163506,0.6339168546193109,0.18353725278470556,0.2674476343772746,0.31469849343334344,0.368418815383778,0.18320750456111595,0.6113402365178733,0.6851853889214305,0.7399444002857472,0.5753303728528169,0.23434662764657443,0.40135082709991904,0.4876243997657286,0.7699545857261552],[0.8556327288880048,0.5926731025083078,0.6671350752413799,0.6299274501579512,0.9678465237199804,0.081625573538074,0.2718168729584738,0.8195809665452718,0.9581081892181045,0.9643833999403771,0.7547269612197609,0.9800159595263064,0.5822488154364347,0.8130636748236238,0.5479909097655249,0.9857589304330968,0.23756438284918185,0.9488357550940938,0.6229570693210378,0.40108296029487966,0.9123120172401529,0.9829501305858519,0.902327855584057,0.9522851591671261,0.9997905323251969,0.9552818899408472,0.8406298493923273,0.483268421677445,0.9787585168099244,0.5056757251395726,0.26537382938568577,0.9395698663949306,0.09394515820081738,0.8449493182965856,0.4286720206868857,0.04594138162148098,0.31392987498294583,0.476952506987047,0.6335456263740614,0.7029989683148866,0.8827529272600255,0.14855387336700146,0.7071763752615275,0.1386651747525378,0.5321802227153194,0.7543832082498794,0,0.8801630724945655,0.19674182857934897,0.7140982123232276,0.8634834690070503,0.46978033614446585,0.7850760985841055,0.7599586884707957,0.6546679349813993,0.7497349090882471,0.8015964177131312,0.8035023813823545,0.8046484476279383,0.5936143279965954,0.38075617091572816,0.7466632020529718,0.6217239957766328,0.7318290854850901,0.6891064089998302,0.5602615181346688,0.7412859962347647,0.5714835091344069,0.9575790895965163,0.9597272342507213,0.6570171549432194,0.8901440055033677,0.8883343555083637,0.7797441766463931,0.9211124920176647,0.937271021956906,0.3218277824455813,0.9208526577448326,0.9871860944504008,0.810041671589469,0.9730343235745191,0.8527054542863233,0.8096508421136317,0.1982081900392324,0.04314014336645803,0.8755349380732347,0.8670866195926035,0.7079624947728654,0.9310165187509791,0.3495596364964304],[0.09755862007510346,0.8774780585674281,0.4301922057745581,0.2432157240307412,0.13910719262066445,0.8991866270719308,0.9168582853818158,0.21255428854218947,0.2269756685921752,0.4781890948023869,0.17770272006137747,0.23232128999253945,0.5192565348886223,0.11160428179924684,0.8928899571647356,0.3702753677197469,0.9275302273713375,0.5324369574928467,0.4823359488072483,0.9075754904741993,0.6067786925159188,0.40518430417321766,0.6451033834397232,0.5504637984564202,0.3266175753217615,0.09946979374239356,0.7275523770818291,0.3864566280073388,0.18072448344130687,0.9127751413711803,0.7567275237351403,0.062068751776845656,0.8350721000281192,0.16998358734353902,0.6454025774055163,0.8956715252440653,0.9267088935965063,0.617036336799091,0.8501490462670985,0.21255781223264436,0.6861621670845187,0.9090248764818221,0.17381463508979844,0.8255153203402723,0.5585903394261822,0.14512325272774676,0.8801630724945655,0,0.9032823364083267,0.18156118200743313,0.033084209429966295,0.9257133888141617,0.2899294432345657,0.13380073989091967,0.23780506182237682,0.14333497318435964,0.17078749769665907,0.10217235490065353,0.13696915530747591,0.30863151789166,0.6838436590250866,0.3379835225234584,0.2487398274681382,0.2161604327186206,0.8504849847751018,0.3103017606882672,0.8239409709948396,0.30360085178723795,0.5162629277174542,0.19765007531800444,0.27578660159406043,0.09459552903579782,0.0534012294618502,0.7895508266311921,0.04769795126528713,0.20884825407129404,0.713897189581845,0.03075932627634527,0.2778000346845754,0.2514191819390024,0.43484162663873893,0.07700305918731983,0.7473661968559596,0.7849723788848684,0.8598061112342315,0.699418217747636,0.12712544560091815,0.384644957529411,0.5911268097462925,0.9224734693565874],[0.8549731924315515,0.40386384992294966,0.7872225300343965,0.6510350224314188,0.9622638489911663,0.10680335812236155,0.0648336679720477,0.8928548723943343,0.9295274802374566,0.8786513194973162,0.8148127245152278,0.9521621790077283,0.7207965999176056,0.8138330148549371,0.3544448138885337,0.9259573294271345,0.03260007245294599,0.8500918262793609,0.7540211419280867,0.19922004629165072,0.7951313112086333,0.9149650230625498,0.7763935440745188,0.8498629082704983,0.9513618800324317,0.9589158881455093,0.6938711064217191,0.5242038971924244,0.9636587528027685,0.30703169809261494,0.45062037575597474,0.952040271662579,0.29238801670114534,0.9087795766915561,0.5923220996649002,0.1427821122875291,0.10703546711640564,0.6354722235631607,0.4517166149751349,0.7648065372223425,0.7470339722126744,0.040964565993636376,0.7514681094546477,0.33680506357468415,0.678435018731042,0.7588141390131274,0.19674182857934897,0.9032823364083267,0,0.7659962286619366,0.8961893746856073,0.26779804157565396,0.8754045552523871,0.8057004829132125,0.711699655968991,0.7963477084522965,0.7876377991685624,0.8480257054101162,0.8591822692069268,0.5890004799764622,0.5521404947456751,0.8473184874210536,0.6592799216665031,0.8003258704899446,0.5099433001062775,0.6023704189963414,0.569878501557528,0.5907561707178737,0.862976216399605,0.9383228658213659,0.6404653924988496,0.936266703838595,0.9254234868141895,0.6170993641973225,0.952334129193386,0.9114782620940804,0.4982824826145563,0.9443890800941213,0.9490912873575248,0.8919404480276544,0.8975992462956598,0.8954321510678508,0.6570905329430624,0.38776113649677935,0.24657623361298958,0.73663929735909