"trial_id","rt","stimulus","response","trial_type","trial_index","plugin_version","time_elapsed","participant_number","success","raw_payload","placements","dissimilarity_vector","n_words","trial_category","distance_matrix","value"
"consent_form","6981","
    <div style=""max-width:800px; margin:0 auto; text-align:left; font-size: 16px; padding: 10px 0;"">
      <h1>Informed Consent Form</h1>
      <p>You are being invited to participate in a research study titled <strong>""Reproducibility of Psychological Science and Instruction.""</strong> This study is being done by Dr. Bria Long from UC San Diego and associated graduate students in the Experimental Methods course. You were selected to participate in this study because you are an adult in the U.S. and have been a represented population in previous psychology studies.</p>
      
      <p>The purpose of this study is to better understand how well previously published studies in the psychological field replicate online and with different populations. Your participation in this research should last approximately <strong>5-30 minutes</strong>. If you agree to take part in this study, you may be asked to view a set of stimuli, including pictures, sounds, written text, or videos and then giving some responses via key-presses, verbally, or with paper-and-pencil. We may also observe your choices or preferences among an array of stimuli. These stimuli will be taken directly from or closely adapted from studies that already exist in the published psychological literature. Stimuli will include, e.g., pictures of objects and human faces, audio and video clips, short text passages, etc. None of the stimuli will be disturbing, threatening, or offensive. The online and in-person experiments described in this protocol will take no more than 30 minutes. An example game you might play would be to click on an image on the screen that matches a word you hear being said out loud. Your total expected time commitment for this study is between 5-30 minutes, and is specified in the study description.</p>
      
      <p>Your participation in this study is completely voluntary and you can withdraw at any time. Choosing not to participate or withdrawing will result in no penalty or loss of benefits to which you are entitled. You are free to skip any question that you choose.</p>
      
      <p>We will not be asking for any personally identifying information, and we will handle responses as confidentially as possible. Your SONA or Prolific IDs will never be tied to your responses on this survey. However, we cannot guarantee the confidentiality of information transmitted over the Internet. To minimize this risk, data containing anything that might be personally identifying (e.g. Prolific IDs or IP addresses) will be encrypted on transfer and storage and will only be accessible to qualified lab personnel. We will be keeping data collected as part of this experiment indefinitely. This anonymized data (containing neither Prolific IDs nor IP addresses) may be shared with the scientific community or with other participants to be used as stimuli in future studies.</p>
      
      <p>If you have questions about this project or if you have a research-related problem, you may contact the researcher(s), <strong>Dr. Bria Long, <a href=""mailto:brlong@ucsd.edu"">brlong@ucsd.edu</a></strong>. If you have any questions concerning your rights as a research subject, you may contact the UC San Diego Office of IRB Administration at <a href=""mailto:irb@ucsd.edu"">irb@ucsd.edu</a> or 858-246-4777.</p>
      
      <h3 style=""margin-top: 25px;"">Consent Statement</h3>
      <p style=""font-weight: bold;"">By participating in this research you are indicating that you are at least 18 years old, have read this consent form, and agree to participate in this research study. Please keep this consent form for your records.</p>
    </div>
  ","0","html-button-response","0","2.1.0","6985","bm02dta2gn_foqd45","","","","","","","",""
"","47722","","{""participant_date"":""11/26/2025"",""participant_time"":""7:40 PM""}","survey-html-form","1","2.1.0","54711","bm02dta2gn_foqd45","","","","","","","",""
"","4872","
    <div style=""display:flex; align-items:center; justify-content:center; height:100vh; font-family:sans-serif;"">
      <div style=""max-width:900px; margin:0 auto; text-align:center;"">
        <h1 style= ""font-size: 24px;"">Welcome! Thank you for participating in the study.</h1>
        <h2 style= ""font-size: 22px;"">The study will be in Madarin Chinese.</h2>
        <h2 style= ""font-size: 22px;"">Please use desktop computers or laptops for the study. Tablets and phones are not allowed.</h2>
        <p style=""font-size:16px; margin-top:30px;""><em>Press any key to continue.</em></p>
      </div>
    </div>
  "," ","html-keyboard-response","2","2.1.0","59585","bm02dta2gn_foqd45","","","","","","","",""
"","8243","
    <div style=""display:flex; align-items:center; justify-content:center; height:100vh; font-family:sans-serif;"">
      <div style=""max-width:900px; margin:0 auto; text-align:center;"">
        <p style=""font-size:18px; line-height:1.6;"">
          In this task, you will be presented with <strong>90 words</strong> arranged <strong>outside a circle</strong>.<br>
          Your job is to <strong>drag these words into the circle</strong> and <strong>rearrange them</strong> based on their <strong>meaning similarity</strong>.<br><br>
          Words that are <strong>similar in meaning</strong> should be placed <strong>closer together</strong>.<br>
          Words that are <strong>different in meaning</strong> should be placed <strong>farther apart</strong>.<br><br>
          You can place the words <strong>anywhere inside the circle</strong>. There is no single correct answer — 
          we are interested in <strong>your personal judgment</strong> of how these words relate to each other.<br><br>
          <strong>You must move all words into the circle before you can finish.</strong><br>
          After the initial arrangement, you will arrange words from specific categories.
        </p>
        <p style=""font-size:16px; margin-top:30px;""><em>Press any key to continue.</em></p>
      </div>
    </div>
  "," ","html-keyboard-response","3","2.1.0","67829","bm02dta2gn_foqd45","","","","","","","",""
"","10440","","","fullscreen","4","2.1.0","79272","bm02dta2gn_foqd45","true","{""placements"":[{""word"":""骄傲"",""x"":486,""y"":312.7,""cx"":505,""cy"":330.1,""angle_rad"":-0.128,""angle_deg"":352.7},{""word"":""冰箱"",""x"":406,""y"":359.7,""cx"":425,""cy"":377.1,""angle_rad"":0.347,""angle_deg"":19.9},{""word"":""兔子"",""x"":157,""y"":85.7,""cx"":176,""cy"":103.1,""angle_rad"":-2.185,""angle_deg"":234.8},{""word"":""反感"",""x"":602,""y"":384.7,""cx"":621,""cy"":402.1,""angle_rad"":0.19,""angle_deg"":10.9},{""word"":""协议"",""x"":583,""y"":404.7,""cx"":602,""cy"":422.1,""angle_rad"":0.279,""angle_deg"":16},{""word"":""嘴唇"",""x"":616,""y"":289.7,""cx"":635,""cy"":307.1,""angle_rad"":-0.149,""angle_deg"":351.4},{""word"":""剪刀"",""x"":419,""y"":342.7,""cx"":438,""cy"":360.1,""angle_rad"":0.114,""angle_deg"":6.5},{""word"":""长颈鹿"",""x"":146,""y"":111.7,""cx"":172,""cy"":129.1,""angle_rad"":-2.249,""angle_deg"":231.1},{""word"":""制度"",""x"":515,""y"":440.7,""cx"":534,""cy"":458.1,""angle_rad"":0.531,""angle_deg"":30.4},{""word"":""过失"",""x"":391,""y"":433.7,""cx"":410,""cy"":451.1,""angle_rad"":1.035,""angle_deg"":59.3},{""word"":""友情"",""x"":508,""y"":528.7,""cx"":527,""cy"":546.1,""angle_rad"":0.837,""angle_deg"":47.9},{""word"":""方法"",""x"":455,""y"":509.7,""cx"":474,""cy"":527.1,""angle_rad"":0.96,""angle_deg"":55},{""word"":""蚂蚁"",""x"":105,""y"":102.7,""cx"":124,""cy"":120.1,""angle_rad"":-2.348,""angle_deg"":225.5},{""word"":""沮丧"",""x"":441,""y"":562.7,""cx"":460,""cy"":580.1,""angle_rad"":1.125,""angle_deg"":64.4},{""word"":""沙发"",""x"":400,""y"":393.7,""cx"":419,""cy"":411.1,""angle_rad"":0.725,""angle_deg"":41.5},{""word"":""暴力"",""x"":382,""y"":563.7,""cx"":401,""cy"":581.1,""angle_rad"":1.354,""angle_deg"":77.6},{""word"":""筷子"",""x"":334,""y"":391.7,""cx"":353,""cy"":409.1,""angle_rad"":1.52,""angle_deg"":87.1},{""word"":""概念"",""x"":354,""y"":555.7,""cx"":373,""cy"":573.1,""angle_rad"":1.468,""angle_deg"":84.1},{""word"":""麻雀"",""x"":126,""y"":104.7,""cx"":145,""cy"":122.1,""angle_rad"":-2.303,""angle_deg"":228},{""word"":""椅子"",""x"":405,""y"":344.7,""cx"":424,""cy"":362.1,""angle_rad"":0.162,""angle_deg"":9.3},{""word"":""买卖"",""x"":258,""y"":548.7,""cx"":277,""cy"":566.1,""angle_rad"":1.897,""angle_deg"":108.7},{""word"":""魔力"",""x"":302,""y"":454.7,""cx"":321,""cy"":472.1,""angle_rad"":1.804,""angle_deg"":103.4},{""word"":""结果"",""x"":293,""y"":482.7,""cx"":312,""cy"":500.1,""angle_rad"":1.819,""angle_deg"":104.2},{""word"":""敌意"",""x"":301,""y"":609.7,""cx"":320,""cy"":627.1,""angle_rad"":1.679,""angle_deg"":96.2},{""word"":""纠纷"",""x"":237,""y"":595.7,""cx"":256,""cy"":613.1,""angle_rad"":1.914,""angle_deg"":109.7},{""word"":""关系"",""x"":413,""y"":599.7,""cx"":432,""cy"":617.1,""angle_rad"":1.273,""angle_deg"":72.9},{""word"":""铅笔"",""x"":339,""y"":398.7,""cx"":358,""cy"":416.1,""angle_rad"":1.45,""angle_deg"":83.1},{""word"":""愤怒"",""x"":72,""y"":265.7,""cx"":91,""cy"":283.1,""angle_rad"":-2.889,""angle_deg"":194.5},{""word"":""团队"",""x"":235,""y"":432.7,""cx"":254,""cy"":450.1,""angle_rad"":2.335,""angle_deg"":133.8},{""word"":""洗衣机"",""x"":361,""y"":368.7,""cx"":387,""cy"":386.1,""angle_rad"":0.773,""angle_deg"":44.3},{""word"":""大腿"",""x"":597,""y"":279.7,""cx"":616,""cy"":297.1,""angle_rad"":-0.196,""angle_deg"":348.8},{""word"":""慈善"",""x"":164,""y"":571.7,""cx"":183,""cy"":589.1,""angle_rad"":2.18,""angle_deg"":124.9},{""word"":""手指"",""x"":604,""y"":326.7,""cx"":623,""cy"":344.1,""angle_rad"":-0.022,""angle_deg"":358.8},{""word"":""性质"",""x"":176,""y"":551.7,""cx"":195,""cy"":569.1,""angle_rad"":2.186,""angle_deg"":125.3},{""word"":""猫"",""x"":155,""y"":121.7,""cx"":167,""cy"":139.1,""angle_rad"":-2.285,""angle_deg"":229.1},{""word"":""眼睛"",""x"":587,""y"":299.7,""cx"":606,""cy"":317.1,""angle_rad"":-0.128,""angle_deg"":352.7},{""word"":""床"",""x"":402,""y"":385.7,""cx"":414,""cy"":403.1,""angle_rad"":0.693,""angle_deg"":39.7},{""word"":""鼠标"",""x"":344,""y"":375.7,""cx"":363,""cy"":393.1,""angle_rad"":1.278,""angle_deg"":73.2},{""word"":""微波炉"",""x"":318,""y"":388.7,""cx"":344,""cy"":406.1,""angle_rad"":1.677,""angle_deg"":96.1},{""word"":""原因"",""x"":145,""y"":485.7,""cx"":164,""cy"":503.1,""angle_rad"":2.453,""angle_deg"":140.5},{""word"":""锤子"",""x"":354,""y"":373.7,""cx"":373,""cy"":391.1,""angle_rad"":1.06,""angle_deg"":60.8},{""word"":""勺子"",""x"":353,""y"":367.7,""cx"":372,""cy"":385.1,""angle_rad"":1.011,""angle_deg"":57.9},{""word"":""缘分"",""x"":131,""y"":398.7,""cx"":150,""cy"":416.1,""angle_rad"":2.822,""angle_deg"":161.7},{""word"":""胳膊"",""x"":617,""y"":269.7,""cx"":636,""cy"":287.1,""angle_rad"":-0.216,""angle_deg"":347.6},{""word"":""老鼠"",""x"":131,""y"":91.7,""cx"":150,""cy"":109.1,""angle_rad"":-2.264,""angle_deg"":230.3},{""word"":""兴奋"",""x"":170,""y"":194.7,""cx"":189,""cy"":212.1,""angle_rad"":-2.433,""angle_deg"":220.6},{""word"":""耳朵"",""x"":435,""y"":152.7,""cx"":454,""cy"":170.1,""angle_rad"":-1.047,""angle_deg"":300},{""word"":""社会"",""x"":133,""y"":340.7,""cx"":152,""cy"":358.1,""angle_rad"":3.101,""angle_deg"":177.7},{""word"":""牙刷"",""x"":340,""y"":349.7,""cx"":359,""cy"":367.1,""angle_rad"":1.086,""angle_deg"":62.2},{""word"":""过程"",""x"":45,""y"":297.7,""cx"":64,""cy"":315.1,""angle_rad"":-3.02,""angle_deg"":187},{""word"":""光彩"",""x"":184,""y"":192.7,""cx"":203,""cy"":210.1,""angle_rad"":-2.381,""angle_deg"":223.6},{""word"":""空调"",""x"":384,""y"":385.7,""cx"":403,""cy"":403.1,""angle_rad"":0.786,""angle_deg"":45.1},{""word"":""乌龟"",""x"":141,""y"":95.7,""cx"":160,""cy"":113.1,""angle_rad"":-2.247,""angle_deg"":231.3},{""word"":""地位"",""x"":223,""y"":261.7,""cx"":242,""cy"":279.1,""angle_rad"":-2.561,""angle_deg"":213.3},{""word"":""创伤"",""x"":71,""y"":207.7,""cx"":90,""cy"":225.1,""angle_rad"":-2.694,""angle_deg"":205.7},{""word"":""死亡"",""x"":61,""y"":227.7,""cx"":80,""cy"":245.1,""angle_rad"":-2.771,""angle_deg"":201.2},{""word"":""快乐"",""x"":190,""y"":173.7,""cx"":209,""cy"":191.1,""angle_rad"":-2.297,""angle_deg"":228.4},{""word"":""身份"",""x"":216,""y"":108.7,""cx"":235,""cy"":126.1,""angle_rad"":-2.045,""angle_deg"":242.8},{""word"":""婚姻"",""x"":420,""y"":261.7,""cx"":439,""cy"":279.1,""angle_rad"":-0.673,""angle_deg"":321.5},{""word"":""错误"",""x"":36,""y"":206.7,""cx"":55,""cy"":224.1,""angle_rad"":-2.738,""angle_deg"":203.1},{""word"":""脚踝"",""x"":588,""y"":284.7,""cx"":607,""cy"":302.1,""angle_rad"":-0.184,""angle_deg"":349.4},{""word"":""老虎"",""x"":174,""y"":64.7,""cx"":193,""cy"":82.1,""angle_rad"":-2.101,""angle_deg"":239.6},{""word"":""冷漠"",""x"":317,""y"":84.7,""cx"":336,""cy"":102.1,""angle_rad"":-1.627,""angle_deg"":266.8},{""word"":""疾病"",""x"":73,""y"":205.7,""cx"":92,""cy"":223.1,""angle_rad"":-2.684,""angle_deg"":206.2},{""word"":""扫帚"",""x"":302,""y"":85.7,""cx"":321,""cy"":103.1,""angle_rad"":-1.688,""angle_deg"":263.3},{""word"":""难过"",""x"":280,""y"":10.7,""cx"":299,""cy"":28.1,""angle_rad"":-1.728,""angle_deg"":261},{""word"":""钥匙"",""x"":250,""y"":72.7,""cx"":269,""cy"":90.1,""angle_rad"":-1.873,""angle_deg"":252.7},{""word"":""天堂"",""x"":327,""y"":43.7,""cx"":346,""cy"":61.1,""angle_rad"":-1.585,""angle_deg"":269.2},{""word"":""义务"",""x"":337,""y"":139.7,""cx"":356,""cy"":157.1,""angle_rad"":-1.54,""angle_deg"":271.8},{""word"":""数据"",""x"":442,""y"":207.7,""cx"":461,""cy"":225.1,""angle_rad"":-0.844,""angle_deg"":311.6},{""word"":""爱心"",""x"":192,""y"":148.7,""cx"":211,""cy"":166.1,""angle_rad"":-2.218,""angle_deg"":232.9},{""word"":""内容"",""x"":407,""y"":92.7,""cx"":426,""cy"":110.1,""angle_rad"":-1.264,""angle_deg"":287.6},{""word"":""现象"",""x"":498,""y"":138.7,""cx"":517,""cy"":156.1,""angle_rad"":-0.86,""angle_deg"":310.7},{""word"":""柜子"",""x"":363,""y"":340.7,""cx"":382,""cy"":358.1,""angle_rad"":0.248,""angle_deg"":14.2},{""word"":""奇迹"",""x"":330,""y"":217.7,""cx"":349,""cy"":235.1,""angle_rad"":-1.579,""angle_deg"":269.5},{""word"":""恐惧"",""x"":61,""y"":245.7,""cx"":80,""cy"":263.1,""angle_rad"":-2.83,""angle_deg"":197.8},{""word"":""膝盖"",""x"":579,""y"":283.7,""cx"":598,""cy"":301.1,""angle_rad"":-0.195,""angle_deg"":348.8},{""word"":""舒心"",""x"":218,""y"":180.7,""cx"":237,""cy"":198.1,""angle_rad"":-2.21,""angle_deg"":233.4},{""word"":""债务"",""x"":281,""y"":284.7,""cx"":300,""cy"":302.1,""angle_rad"":-2.378,""angle_deg"":223.8},{""word"":""大象"",""x"":159,""y"":79.7,""cx"":178,""cy"":97.1,""angle_rad"":-2.168,""angle_deg"":235.8},{""word"":""作用"",""x"":576,""y"":156.7,""cx"":595,""cy"":174.1,""angle_rad"":-0.623,""angle_deg"":324.3},{""word"":""纪律"",""x"":464,""y"":57.7,""cx"":483,""cy"":75.1,""angle_rad"":-1.12,""angle_deg"":295.8},{""word"":""电视"",""x"":397,""y"":354.7,""cx"":416,""cy"":372.1,""angle_rad"":0.323,""angle_deg"":18.5},{""word"":""肩膀"",""x"":567,""y"":251.7,""cx"":586,""cy"":269.1,""angle_rad"":-0.33,""angle_deg"":341.1},{""word"":""鼻子"",""x"":592,""y"":273.7,""cx"":611,""cy"":291.1,""angle_rad"":-0.222,""angle_deg"":347.3},{""word"":""斧头"",""x"":326,""y"":410.7,""cx"":345,""cy"":428.1,""angle_rad"":1.635,""angle_deg"":93.7},{""word"":""风景"",""x"":421,""y"":209.7,""cx"":440,""cy"":227.1,""angle_rad"":-0.939,""angle_deg"":306.2},{""word"":""熊猫"",""x"":145,""y"":102.7,""cx"":164,""cy"":120.1,""angle_rad"":-2.251,""angle_deg"":231},{""word"":""骗局"",""x"":46,""y"":266.7,""cx"":65,""cy"":284.1,""angle_rad"":-2.914,""angle_deg"":193},{""word"":""桌子"",""x"":386,""y"":339.7,""cx"":405,""cy"":357.1,""angle_rad"":0.128,""angle_deg"":7.4}],""n_words"":90,""words"":[""骄傲"",""冰箱"",""兔子"",""反感"",""协议"",""嘴唇"",""剪刀"",""长颈鹿"",""制度"",""过失"",""友情"",""方法"",""蚂蚁"",""沮丧"",""沙发"",""暴力"",""筷子"",""概念"",""麻雀"",""椅子"",""买卖"",""魔力"",""结果"",""敌意"",""纠纷"",""关系"",""铅笔"",""愤怒"",""团队"",""洗衣机"",""大腿"",""慈善"",""手指"",""性质"",""猫"",""眼睛"",""床"",""鼠标"",""微波炉"",""原因"",""锤子"",""勺子"",""缘分"",""胳膊"",""老鼠"",""兴奋"",""耳朵"",""社会"",""牙刷"",""过程"",""光彩"",""空调"",""乌龟"",""地位"",""创伤"",""死亡"",""快乐"",""身份"",""婚姻"",""错误"",""脚踝"",""老虎"",""冷漠"",""疾病"",""扫帚"",""难过"",""钥匙"",""天堂"",""义务"",""数据"",""爱心"",""内容"",""现象"",""柜子"",""奇迹"",""恐惧"",""膝盖"",""舒心"",""债务"",""大象"",""作用"",""纪律"",""电视"",""肩膀"",""鼻子"",""斧头"",""风景"",""熊猫"",""骗局"",""桌子""],""distance_matrix"":[[0,0.14967739994841794,0.6603715417071773,0.22246211566508162,0.2177392525562954,0.21495888830094662,0.1174397035172036,0.6424809823489792,0.21366955512701952,0.2512627180100641,0.35655355951650364,0.3271138279547479,0.7191551038319339,0.4179515189730438,0.19186543281559015,0.44736099549410757,0.2803246437347336,0.45542201141646155,0.6870882520173867,0.14020521711514003,0.5412933945631674,0.38201865813224484,0.4232373053983567,0.5774986455744041,0.6224945272386467,0.4880358680358722,0.2786686063987662,0.6885693918402908,0.45820542102938294,0.21262111672823594,0.18797493464833132,0.6828753694466931,0.19300995410879151,0.646598095073093,0.6412713756733628,0.16473311473879507,0.18940646345413364,0.2537758913907581,0.29152710302807167,0.6315226150824657,0.2372454833208502,0.2347669292648979,0.6030604872413687,0.22470565800889045,0.6910826799143303,0.5565456187461116,0.27471352181627595,0.5844920426661026,0.24590137531098805,0.72949393980917,0.536004521450251,0.2039977056166832,0.6734471536984127,0.4410488489802941,0.7075673007130477,0.7164517495351898,0.5394064149925142,0.5583579560145853,0.13407665374160257,0.7645369436364667,0.171289086372931,0.6584497513237002,0.4675134886264015,0.7051689355577668,0.4814945100842045,0.6035590831491678,0.5553506135755849,0.5152217088779529,0.37519324709092167,0.18472175104585078,0.5554395860180369,0.38423515089891974,0.2854984762046925,0.20518819257849863,0.2992033384286914,0.7111807211936714,0.15738443182218284,0.49237122920026655,0.3395583792857512,0.6633785530202336,0.29496047346083576,0.42116206972722864,0.15904127854599154,0.16401265055877481,0.18322508543111662,0.30748510761351516,0.19794722254554756,0.6616420390773854,0.7313957378250691,0.1676410787316136],[0.14967739994841794,0,0.6113312177350759,0.3240585653244959,0.2991714527188842,0.3636117114291343,0.030902622204162615,0.5847739040168565,0.2212523675417777,0.12092581759838453,0.3237384109551443,0.2578566008169299,0.653845682452132,0.33804721128296866,0.05274021986115388,0.3370684569517852,0.12639318884480713,0.3326986747878626,0.625434056458772,0.020307568320029373,0.3947142235391146,0.2296662619912344,0.27320838338065134,0.44646598201039667,0.47827229444105035,0.3947973913664493,0.12428558403037274,0.5726231161961154,0.3046611594304766,0.060270815040252515,0.33984776511270154,0.5306116874962751,0.32928852051928115,0.493806120076534,0.5793360297898267,0.312573809458381,0.042267418023289795,0.10183479447677835,0.13844643668572962,0.477526531887678,0.08489706229119269,0.08447896826077643,0.45744225359069685,0.376978145037307,0.6342126654324183,0.47442788038608646,0.34308278413894433,0.4506347539717615,0.10636396266910966,0.6047526863239401,0.45752311919930166,0.051963881291558156,0.6176890167119278,0.34069843766142294,0.6073907740700526,0.609918451143111,0.4695814623292212,0.5190917753679903,0.16001058101756738,0.6614924501031383,0.3228267899302479,0.6197495660229547,0.47623017796767464,0.6057512418516565,0.48293585760389995,0.6126779748890204,0.5388158679141406,0.5372651744244455,0.3789315805618657,0.25520184083903075,0.49533932953656734,0.43955573647792134,0.39360365979905293,0.07351436781818818,0.26327836938185806,0.5998633997658329,0.30969870966872837,0.4272168830793519,0.2378454706876754,0.6165492364115096,0.43586051639507084,0.5069719823151897,0.01242460957677028,0.31786981881770465,0.33625744861758244,0.15315310638035134,0.2461222236189895,0.6047640427358532,0.6139591536879895,0.04235574203406195],[0.6603715417071773,0.6113312177350759,0,0.8873409710842521,0.8808166816103163,0.8310523692670991,0.6059507570148499,0.03906393668098311,0.8341802339811621,0.6930574322364179,0.9357232934273385,0.8576002401369281,0.08632246652170251,0.918992948182218,0.6480671979727095,0.8743400290107017,0.583485637205004,0.8432399935339621,0.055791737020312045,0.5919442203687362,0.7837919245568923,0.6549713842557875,0.6935433090393499,0.8994955478085591,0.8542547127462398,0.9507380321046074,0.597734836971018,0.3265083736092237,0.5870707466986799,0.582649576683226,0.7954089969599175,0.8040285565447639,0.8402652710977259,0.7713110900587938,0.05703738000843285,0.7944742057854852,0.6324661849477612,0.569442187755162,0.5717616969888925,0.6611495152847232,0.5758772235858568,0.5667136966103155,0.5178852927440363,0.8196437602655625,0.03969194768328169,0.17794323386468802,0.4710996342934322,0.4214610067736101,0.5297757966596691,0.3942391418939908,0.1789107595343569,0.6212551451749533,0.026688033185395865,0.3080521487004437,0.2436542260389954,0.28049457228204816,0.1516729775705517,0.10065895357793728,0.5218435760708843,0.28001851678074285,0.7851811147301522,0.04024965729336025,0.26152151639916194,0.23901829734752342,0.2365579564461391,0.23499803636637995,0.15154014137323768,0.28666002311016225,0.3079813247995673,0.5111240729319485,0.11520942839343327,0.41142950820399976,0.5694928163168832,0.5407378839336516,0.3573688077274419,0.3057599366768398,0.7709024903747865,0.1831440440462833,0.3854291627688883,0.005817175154616198,0.7024023252022765,0.5082284252294058,0.595128130888033,0.7312828970216431,0.7837901689818023,0.6048003818320618,0.48060254697224103,0.029917128846199015,0.34857976691566306,0.5643273939397789],[0.22246211566508162,0.3240585653244959,0.8873409710842521,0,0.04119427511947508,0.15507063726241513,0.30770229961447787,0.8696363044983095,0.16744820659551568,0.3557172645657933,0.2814249564822899,0.3163600440759984,0.9460919626019016,0.3946449037855383,0.3317331622107454,0.46720852425731063,0.44136859475414164,0.4965227530923087,0.9141713197887968,0.3297689456824585,0.62939117469535,0.5078693700073718,0.534674200133499,0.6205847245941006,0.696789016163599,0.47160267880603557,0.43351662412931274,0.8991112036530073,0.6111424367121225,0.3855533289193655,0.17020029891900787,0.7877198913587138,0.09185682493825863,0.7566306239909151,0.8682974686195006,0.13890983999189505,0.33972319824329095,0.42483871711342147,0.45623957958546757,0.7740408670312197,0.4083444068567484,0.41056705676532307,0.7793324471601231,0.18826208999127603,0.9182508374023421,0.7805444490900895,0.4709250437296202,0.7790852299899412,0.4351057869340461,0.9333179934418057,0.7606618204696762,0.3580257930366998,0.9006124341174749,0.6582869147909601,0.9266119376258024,0.9325975627930304,0.7654882998454494,0.7848480722600795,0.3607934446912954,0.9825293838384785,0.1633055756385632,0.8844779873537502,0.6838008366228892,0.9245167980299892,0.7000472740449875,0.8164537843184537,0.7779381817567582,0.7241956829659209,0.5957946995281813,0.3922947776799501,0.7824319381106679,0.5795279801801331,0.43968658409796724,0.3996466322555923,0.5263669497894128,0.9246955451766558,0.16764911038677982,0.718793582024612,0.5547199870044753,0.8902040765262279,0.37711956131691576,0.5858531262917445,0.3400244924182413,0.2241256629339116,0.1807336586694457,0.4565607993291387,0.4142045173997771,0.888809303770099,0.9410221085096996,0.3624108413962815],[0.2177392525562954,0.2991714527188842,0.8808166816103163,0.04119427511947508,0,0.19436356883769582,0.28702087180410907,0.8610751483480005,0.12331611225219306,0.3183843628305751,0.2364202158287907,0.2707619530867117,0.9360735525364781,0.3487599609041372,0.30033539074969934,0.42172402787205887,0.4101668575875629,0.4517036023943756,0.9048943163242645,0.3078396288510389,0.5867618958310745,0.4701910624484842,0.4949710126268495,0.5753906291260072,0.6528927938937175,0.42574010890880726,0.4014058622104354,0.8764366523365905,0.576199010509854,0.35801052782389126,0.2045805675300165,0.7457988907894503,0.12969869021645916,0.7153145060110284,0.8587777311600352,0.17012905552113902,0.30969870966872837,0.39588045743602907,0.4254023083615576,0.7364352481013758,0.37980018870165666,0.3829089189433368,0.74743865639686,0.226933447038448,0.9100902547976739,0.7662140647624063,0.4815599891684994,0.7515792578545449,0.4098464200786938,0.9079996557990423,0.7470796878798643,0.32791383720435463,0.8926308421377437,0.639821146563771,0.9080906509721477,0.9124176157251902,0.7537980464711171,0.7798054741538467,0.3560857801051186,0.9632335238917575,0.19513393598934872,0.8802600006965958,0.6876722913325339,0.9061900008767373,0.7026372033650372,0.82230773865717,0.7776993703033201,0.7316608456486212,0.596925481074309,0.398388282236498,0.7729148603471173,0.5913290867725578,0.459936584941458,0.3765245342178868,0.518766616420744,0.9032431434888114,0.19673455915658386,0.7078607008507999,0.536004521450251,0.8841930505558168,0.4081030410560321,0.6056718711027326,0.3157645094728584,0.2512573100066922,0.21377729016927333,0.42303023490755165,0.4171122480869825,0.8805211839306384,0.9178352947080745,0.3404619044267625],[0.21495888830094662,0.3636117114291343,0.8310523692670991,0.15507063726241513,0.19436356883769582,0,0.3347356633669413,0.8206456466341531,0.29756371986838215,0.43977690878378284,0.4316806637716055,0.4489016587329433,0.9006858249417838,0.5348512527092868,0.39418362100645543,0.5948303575598736,0.494261306516427,0.6165291825085558,0.8667739285544751,0.35810592486654963,0.7305094718809606,0.585496732021713,0.6213634955880932,0.742425194028318,0.8057930484418271,0.6118523126596941,0.4905913338485293,0.9013307967260663,0.6724175928743974,0.42836910674632533,0.031019054609998348,0.8817400625639726,0.060014662892228655,0.8473683133953863,0.8226474527868554,0.04633485683971945,0.39620860476727965,0.46995489885645286,0.5067392697060437,0.844134128213018,0.45309058406430314,0.4517369635774628,0.8224098349070875,0.028613191535916474,0.8669391073464493,0.7540370830935413,0.37300065794064735,0.8034206944262503,0.465253833422583,0.9454686334942689,0.7319916265160927,0.41305961596274793,0.8490189159912989,0.6508604035398565,0.91232101186808,0.924497431691481,0.7299199182293001,0.7258176189590081,0.32472735559447496,0.9701818306564498,0.042619725046036644,0.8205382999383394,0.598499506428776,0.9095332291669938,0.6183358922155653,0.7219722301112647,0.7032690299350403,0.6267770417018693,0.5223585958301454,0.315349570969493,0.7387699922700632,0.4731810561404171,0.31415795626883203,0.42472591010422744,0.4860146365731668,0.9216506586794079,0.05766196962735239,0.6819083346271387,0.5527592695040378,0.8321315794587522,0.22638300595324154,0.4567888196072712,0.37539724342999775,0.09846844680235135,0.04328775202830067,0.5181395204429721,0.3459960222811707,0.8384941155483361,0.944483289199891,0.3869271622589292],[0.1174397035172036,0.030902622204162615,0.6059507570148499,0.30770229961447787,0.28702087180410907,0.3347356633669413,0,0.5814865345166788,0.22355632311124013,0.15371332745998778,0.33838225670656014,0.27954653387208,0.6528906888595619,0.36317548496887664,0.08584982477795952,0.3681315769656801,0.15854175043836785,0.3658374439222439,0.6233833403903148,0.018824774237360866,0.43032088313579775,0.26478760213430536,0.3086888435644337,0.4810045605736021,0.5138647667047058,0.42303023490755165,0.15777680037856887,0.5867080644070373,0.3361112621649399,0.09054337393935316,0.309469679954261,0.5655642743817818,0.3042626717454036,0.5285960806764592,0.577137133988727,0.2838385510990863,0.07723092044325187,0.1316313484961619,0.16942296813624783,0.5095544806203619,0.11511704346296074,0.11272488845865404,0.48346924019518067,0.3464220532052671,0.630945783473337,0.47726237027771395,0.31255199412663415,0.4711781791498272,0.12725617876467915,0.6220772551520666,0.4591732814799922,0.08754600460719142,0.6140575960265225,0.34816810981919233,0.6163709567932434,0.6209454691717792,0.4688512448485627,0.5107374941386956,0.13007922284463974,0.6715481934562132,0.29259061327661934,0.6118523126596941,0.4569087850394274,0.6144869794410485,0.46514189118318017,0.5941673384811915,0.5252919652192535,0.5158150897898803,0.3595794845130025,0.22315572381561014,0.4921400362165044,0.41174540368055024,0.3592905740078399,0.0885310907938375,0.2506129397283081,0.6124447475393833,0.2790396182169177,0.42483871711342147,0.24436662741506662,0.6106387375064268,0.4002897222265398,0.47537745323390956,0.03699078761089636,0.28437536116086015,0.3051976350120338,0.18698816799636214,0.21661628766812055,0.6013612794023853,0.6286769151428215,0.05042862652304615],[0.6424809823489792,0.5847739040168565,0.03906393668098311,0.8696363044983095,0.8610751483480005,0.8206456466341531,0.5814865345166788,0,0.8092153223110651,0.6615319282334942,0.9065136341455512,0.8265866502560317,0.07655234052775674,0.8856619104353045,0.6190486777576627,0.8383873995158947,0.5500485368513112,0.8062369855004203,0.04170412935268121,0.5663574777104194,0.7431085553661633,0.6175310859253281,0.6550867860520925,0.8597294584077456,0.8126554453872206,0.9153275652165981,0.5643468548991806,0.2848155677028401,0.5465541260028044,0.5528188617358638,0.7851776097512259,0.7609023302208907,0.8266166232565696,0.7284052527728097,0.013896669887072131,0.7822630937925457,0.6035590831491678,0.5374694664369343,0.5378165863082902,0.617731273083642,0.5447431641799696,0.5358304075462006,0.4742313813124679,0.8108718547710108,0.0447648332026573,0.13626374765926985,0.4694442672793959,0.37777519346485783,0.49891424182307337,0.3531657120611519,0.13960215482477548,0.5916007522923011,0.028571620234518997,0.27071672310985334,0.20536618373552418,0.24163955213409047,0.11542855786853838,0.10023770192766862,0.5048601603743365,0.24606150972337218,0.7742257108649623,0.08094782212121227,0.2718452533320042,0.20067481095260103,0.24695967969869156,0.2652853869453328,0.16924798789028406,0.30613423934943923,0.30497421646336886,0.5019942832099217,0.08474244050928931,0.41910280269616434,0.5710913475449331,0.5122820749252015,0.3385758686763161,0.26574642972958923,0.7597062683241211,0.15302151673292516,0.3533706599797939,0.04946616249872442,0.7030910801350692,0.5205063781925182,0.5682740802442836,0.7224654376772284,0.7738897601542153,0.5700711117314781,0.4700948618315065,0.015329703549369515,0.30868000943842605,0.5377145152877792],[0.21366955512701952,0.2212523675417777,0.8341802339811621,0.16744820659551568,0.12331611225219306,0.29756371986838215,0.22355632311124013,0.8092153223110651,0,0.20194474305911236,0.1421786989481441,0.14743748180053623,0.879419625071585,0.23271182628487302,0.20200502141297066,0.29671990125295256,0.30729882270555275,0.3245003716361428,0.8505676102523388,0.23822184713583208,0.4591374708104986,0.3504672442629521,0.3712300153066064,0.44901150592063266,0.5248948179674108,0.30961064106665664,0.2963614817564666,0.787826443323468,0.4613733196985395,0.2676488760917068,0.29592436802493316,0.6186690710131577,0.23593750279966222,0.5888201981532375,0.8043793675110162,0.2587198117551389,0.21493368000595195,0.2996812232585127,0.3230591562659416,0.6154698618235469,0.28545077263409574,0.29094709664874613,0.6380382182792886,0.32659195033706623,0.8586863486321147,0.7003222063027779,0.49263849909470686,0.6523178691668648,0.3234896547283378,0.8127181053906091,0.6834790761565945,0.23169514217970813,0.8419199117353489,0.5651733313555312,0.8296068263771558,0.8297063705653803,0.6951452981524093,0.7387104096075287,0.33247705697977226,0.8823161023199076,0.2818745254733257,0.8398834749044404,0.6730918868372875,0.8282186063437349,0.684140532902184,0.8106426894764225,0.7498439267117397,0.7261813482991691,0.577144271258631,0.401562626711188,0.7197897212396493,0.601571372203338,0.4985842981723258,0.2980304755951941,0.47740308306400764,0.817432618620385,0.2773956654778037,0.6520755341060348,0.46323477592015844,0.8388995133555731,0.4786161044348793,0.6381889582389076,0.2382446390897871,0.3214545809552583,0.3012778303063451,0.3137061471154668,0.41025693605349245,0.8291404696106335,0.8276333999657947,0.2678978086925742],[0.2512627180100641,0.12092581759838453,0.6930574322364179,0.3557172645657933,0.3183843628305751,0.43977690878378284,0.15371332745998778,0.6615319282334942,0.20194474305911236,0,0.24606150972337218,0.16061455573542185,0.723152323880202,0.22549475205499311,0.06351332471807118,0.21211734241145772,0.11310149742553903,0.20741866186652483,0.6982083620360381,0.1452010313784967,0.2878453493747404,0.1474465799422911,0.17760186821550078,0.32420590003391847,0.3672022226848421,0.27391477415846016,0.0995893630135701,0.595183514269266,0.2548660869609577,0.11001783273128404,0.42324700936924875,0.4373160059663133,0.3919075531612133,0.4033678743948424,0.6533052505780904,0.39034785174884695,0.0754373948754987,0.11950745344632124,0.12820732773199636,0.41365562043250836,0.1125833483324667,0.12201194609726981,0.4318075296387616,0.45990977132229893,0.7101164291867506,0.5369202569243283,0.46854421752087616,0.45161563849334857,0.15880440462476367,0.6138763605045865,0.5239032631249224,0.07600536899963888,0.6948089670858949,0.39534794151826375,0.6471398404923734,0.6425793640909441,0.5421066163444643,0.6094700970628169,0.28552232504968184,0.6964100386565449,0.4062781749807959,0.7075673007130477,0.588901822127195,0.6463578833557673,0.5929641759760195,0.7229487991817065,0.6401496644406793,0.6528906888595619,0.49266076510294016,0.38078894825431847,0.5736627845933059,0.5633047571860428,0.5174321430392215,0.15689691439227121,0.3687510971875643,0.6272306407738106,0.3954724892223276,0.5052647667542063,0.3034551666511776,0.6995344351955,0.5495317740520048,0.6325986945423115,0.12711974011999658,0.41655728191239755,0.4227583026628885,0.11001783273128404,0.371333102311269,0.6814888629759527,0.6330524940598513,0.15192063704651396],[0.35655355951650364,0.3237384109551443,0.9357232934273385,0.2814249564822899,0.2364202158287907,0.4316806637716055,0.33838225670656014,0.9065136341455512,0.1421786989481441,0.24606150972337218,0,0.08897543302972326,0.9710277378824265,0.12030726340753536,0.2829544741381799,0.21288210947680541,0.36378079818572134,0.25544139973156627,0.9448784242680132,0.34615387182931895,0.4125954684237282,0.35949967689287293,0.36112657752239763,0.3651494233349692,0.4597846206333112,0.19263152282669466,0.3500616792573399,0.8425148566378158,0.4768026135987356,0.3490418193984157,0.4352725677389285,0.5721265774685121,0.3674254793830348,0.5490295283913732,0.8993990943150451,0.39836080851265226,0.2985512936107016,0.3684841247658492,0.378671697577214,0.6035090143566396,0.3588491626946903,0.3671501101684231,0.6588274616284354,0.4628500508945982,0.955602375511817,0.785948330814203,0.6325986945423115,0.6932736395994787,0.40376117928093386,0.8562346483112363,0.7719440838594863,0.31022660409933617,0.939730239404762,0.6450937172642427,0.8975000800460177,0.8919595435549856,0.7883066227853327,0.8464255334432063,0.46306020916322127,0.9459973244550018,0.4225477601213165,0.9465562810185804,0.7995177760739598,0.896800162179343,0.8081942398643542,0.9369853804950343,0.8670518556603264,0.8566461602721173,0.7023240151419272,0.5405754360685403,0.8176262256595684,0.7399606443761728,0.6444244596892802,0.39033733963375167,0.5915264629092907,0.8755816192280216,0.41971967499493146,0.7490271061959355,0.5498089386229824,0.941522562797233,0.6245173412469535,0.7823985238808701,0.3387048826802548,0.466530445452818,0.4420135972180385,0.35620086404346274,0.5454607160280189,0.9265450494057151,0.8790187177788138,0.36959525361904066],[0.3271138279547479,0.2578566008169299,0.8576002401369281,0.3163600440759984,0.2707619530867117,0.4489016587329433,0.27954653387208,0.8265866502560317,0.14743748180053623,0.16061455573542185,0.08897543302972326,0,0.888462207554902,0.08650476709165274,0.20890134291176946,0.14637837949049445,0.2765110233234605,0.17995569055051142,0.8634972361641371,0.28216419608538174,0.32944183460313176,0.26581807687687226,0.2685622088686227,0.30081603570369897,0.38522686469604894,0.16054755644217591,0.2624350709838669,0.750899893343085,0.38312313407602283,0.2709679068525916,0.44504933853734086,0.4903537173777436,0.3879508574856917,0.46474988314005744,0.8185296836377451,0.4080057843976114,0.22450041093590004,0.28481556770284006,0.29079723278220837,0.5126434189864922,0.27716003238003123,0.2862035744486862,0.5651538986206452,0.4770871397914757,0.8752702061020159,0.7021047008153194,0.59023420406154,0.6003760689407833,0.3231478345123941,0.7632906682972641,0.6892180172051036,0.23304393258931255,0.8598639615459871,0.5603506926954265,0.808151666927196,0.801482758032336,0.707316551853812,0.7720331964718997,0.41202784402695036,0.8556556266064597,0.43018403462720556,0.8709904819489173,0.7387923345374978,0.8076065362695294,0.745309953328955,0.8751537910837541,0.7984447248583431,0.799385229321942,0.6414834880684996,0.49825413807749225,0.738458992663405,0.6937177455459256,0.6167296924165764,0.3154576796584498,0.5237958857882383,0.7844271861294824,0.42421629776632125,0.6699599338560397,0.4685559174494567,0.8638957454440337,0.6161948554364988,0.7475214709584314,0.27066143193804065,0.463282104833952,0.4493408880323617,0.26585900958560044,0.49765654760178524,0.8465637647674255,0.7868757030204102,0.3005667389147959],[0.7191551038319339,0.653845682452132,0.08632246652170251,0.9460919626019016,0.9360735525364781,0.9006858249417838,0.6528906888595619,0.07655234052775674,0.879419625071585,0.723152323880202,0.9710277378824265,0.888462207554902,0,0.9431216566395846,0.684767224790968,0.8901669520491146,0.6088206425945034,0.855398158506529,0.030393618991795695,0.6366238476898679,0.7798407632397227,0.6664690326610765,0.700720667748244,0.8997297491826045,0.84448630218452,0.9681691417871703,0.6231166080794646,0.27201038408138456,0.585447476417948,0.6176979130285942,0.8652922726483402,0.781809145083528,0.9053933428382182,0.7516634492098269,0.07351436781818818,0.8616888943596405,0.6695063381096017,0.5990133338017156,0.5956702065919645,0.6360300044552701,0.6076462718743975,0.5991944454227767,0.48970178312397017,0.8913773446585567,0.042267418023289795,0.18272354109217162,0.5506445875829091,0.3940308987036395,0.5625658530830254,0.3347642086249341,0.19455122956699664,0.6565307493356447,0.05631573565997489,0.3247483647172382,0.1789333747806412,0.2157891452636905,0.17957298676065872,0.18025529630298262,0.5824044207933596,0.20296042991160956,0.854114495675341,0.12636150829762804,0.34930781303222597,0.17475504292242314,0.32429847665204137,0.3242606075480888,0.24166764653410122,0.37750003738239046,0.38619481592827815,0.5826118670531377,0.15904127854599154,0.4980641978486588,0.6519406306411359,0.5793360297898267,0.415734982718288,0.24423876804246097,0.8395228221619654,0.22375635934657068,0.41655728191239755,0.09295441018068194,0.7841201484192574,0.5973050021338835,0.6370640163936221,0.8030009171494857,0.8541096601956141,0.6260488490019683,0.5504077402900256,0.06184943402837822,0.28529329517655333,0.606940567134997],[0.4179515189730438,0.33804721128296866,0.918992948182218,0.3946449037855383,0.3487599609041372,0.5348512527092868,0.36317548496887664,0.8856619104353045,0.23271182628487302,0.22549475205499311,0.12030726340753536,0.08650476709165274,0.9431216566395846,0,0.284648176748767,0.09347745688855139,0.33092988365328163,0.14052010745795837,0.9201970469825002,0.36293458673331785,0.3006755479950828,0.2881811073965833,0.27522332642738206,0.2410150292603992,0.3391399475627896,0.0724990516333448,0.3166444748331652,0.7834407317200717,0.40060063865043527,0.3401850750220256,0.5329777078458062,0.45643473975154647,0.4725288676782721,0.4366045451021064,0.8762606839474866,0.49580418453729547,0.29958570633330095,0.34581045822879336,0.3432499119510563,0.5041968887636231,0.34148704744562086,0.3512614334924244,0.5788333422241932,0.5640061919644155,0.93349949010662,0.7557209782618193,0.6775620341637362,0.627020316485306,0.38752758350239014,0.7881180778945345,0.7448742537493757,0.3046969534087278,0.9188490702772508,0.6136816409656287,0.8484739373912672,0.8381903498060007,0.7655907388037673,0.8383808319342329,0.4973423210615217,0.8925012511971891,0.518541795016946,0.9354921687208491,0.8169593521077719,0.8483895643559589,0.8219812808201264,0.9520309530141122,0.8703500400303529,0.8794399787949587,0.7200800835313386,0.5859773447850256,0.7991390130835486,0.7793659920546766,0.7071298907268295,0.3868140388146807,0.5983158905470162,0.8186910912298861,0.5132023358518073,0.7312772545273277,0.5289956611011731,0.9259026778801006,0.7071998943848828,0.836429636614276,0.3490418193984157,0.553620255027256,0.537839549641495,0.31243416540440516,0.583589178848016,0.9054526601073775,0.8165903182916879,0.3774601957479664],[0.19186543281559015,0.05274021986115388,0.6480671979727095,0.3317331622107454,0.30033539074969934,0.39418362100645543,0.08584982477795952,0.6190486777576627,0.20200502141297066,0.06351332471807118,0.2829544741381799,0.20890134291176946,0.684767224790968,0.284648176748767,0,0.2797363943368184,0.10516100132064458,0.27550011251659834,0.6579256089106886,0.07724781295224542,0.3450632599236848,0.18736330409207025,0.22686770229633,0.3906455788581857,0.42717842268243617,0.33873712860875044,0.09713152893712448,0.5811345724746955,0.27740057240780186,0.06286088157885239,0.3740071703882852,0.4871416955454475,0.3525656613875883,0.45139413702082204,0.6122540635559168,0.34354020515075584,0.010990919813027826,0.09316679304204194,0.12036261583750774,0.44635551491096287,0.07875413883727347,0.08466502930130634,0.4429577136316408,0.41114999020492543,0.6682239467595802,0.5013491389415308,0.4004981650908423,0.4482206227968368,0.11909443006606377,0.6071917284383572,0.4862317965243717,0.02505838795491954,0.652235695989793,0.362682227154989,0.6241410356969139,0.623348076501344,0.50134640352948,0.5597452722406897,0.21743411889755954,0.6761992693618387,0.35687911370816433,0.6594280164075136,0.5276608265529755,0.6228982882340107,0.5330883998646091,0.6631112125892107,0.5848396522752354,0.5901876676266247,0.430727991574309,0.3125694465120304,0.5300450806047395,0.49626031869465564,0.44984060445733287,0.10284345844120146,0.31045069147525717,0.6107647009540067,0.3448732409657848,0.46145944236129716,0.26380473035617613,0.6539024335997377,0.4864798617633171,0.5644125307241534,0.06037724755810364,0.3600351930639714,0.3720245273774928,0.12162902833098806,0.30343719805873026,0.6390840561433303,0.621069357962881,0.08811445226470264],[0.44736099549410757,0.3370684569517852,0.8743400290107017,0.46720852425731063,0.42172402787205887,0.5948303575598736,0.3681315769656801,0.8383873995158947,0.29671990125295256,0.21211734241145772,0.21288210947680541,0.14637837949049445,0.8901669520491146,0.09347745688855139,0.2797363943368184,0,0.2924182848372565,0.043747034699521806,0.8697740327542464,0.3616899413809768,0.2031203477612504,0.22026388810998063,0.1955283781683958,0.15028591635539545,0.2423633656311179,0.07434174908875336,0.2790054663613914,0.7107745419932419,0.32291553107192256,0.32058762786615874,0.5879776492483713,0.3582661354551816,0.5356178101272155,0.3386363500267609,0.827438794215626,0.5514441359022657,0.29225517940774465,0.31443133725764094,0.3015310684872012,0.41044370315605383,0.31484746808417047,0.3249667802268533,0.4950873525530323,0.6215469851503773,0.8847908455384637,0.7033863350098807,0.6848154082669644,0.551466536579686,0.3581593362555809,0.7096534517085654,0.695008806799721,0.29148504401699377,0.8711785721668692,0.5631780169016103,0.7818355446236467,0.768487536080921,0.7185869170047563,0.8011753476114506,0.5017510837997401,0.822508571751026,0.5723473140953463,0.8948187207128104,0.7996021126341729,0.7821663437442796,0.801695644028264,0.9309464562923178,0.8412721887912161,0.865343186783516,0.7047456564246574,0.595992912791297,0.7547373370874183,0.7800895062675081,0.7283146132369668,0.3676857763632107,0.5774653578407325,0.7471165130516445,0.5649400947840351,0.6885294566106839,0.48900132547523256,0.881985198388679,0.7454944954671958,0.8482061864841199,0.3439414451383902,0.5988275806460887,0.591050326785217,0.26638546616531716,0.5878748744029405,0.857776805773965,0.741461129204456,0.3680647408628291],[0.2803246437347336,0.12639318884480713,0.583485637205004,0.44136859475414164,0.4101668575875629,0.494261306516427,0.15854175043836785,0.5500485368513112,0.30729882270555275,0.11310149742553903,0.36378079818572134,0.2765110233234605,0.6088206425945034,0.33092988365328163,0.10516100132064458,0.2924182848372565,0,0.27019352574741323,0.5850556306593115,0.13696899356790573,0.28552232504968184,0.11286625819124572,0.16136643527465455,0.36215434828613324,0.3711453155440209,0.36550481101758836,0.009607135362202524,0.47902549224065927,0.17358650688924546,0.06359444189093254,0.4709250437296201,0.40725378693662495,0.45737934833352023,0.36944359401044197,0.5408267021491904,0.4432266542038773,0.09728094081439669,0.026688033185395865,0.011078859511594406,0.34651665656496605,0.040064526029770335,0.04622625873711181,0.3332643711822557,0.5080664765570784,0.5980013184270633,0.4217986833075706,0.4270149277709892,0.3403335473924405,0.06588670983076303,0.5009550872520775,0.40993656815761154,0.07908520055901887,0.5832502474762065,0.279721794185154,0.5293612485414806,0.525197930927834,0.4300121173408042,0.5054683062739662,0.25464734698559066,0.5789116192136773,0.4538911795718325,0.6010254364095814,0.5068908155205303,0.528562336157276,0.5072208135727246,0.6355718293448054,0.5441684472944049,0.5744448963365917,0.4146239715243722,0.3502918162720949,0.4635925821350983,0.5074100607102352,0.49696443755023645,0.09291187815990595,0.28488727706415923,0.5104151235306058,0.4407972372233017,0.3959322880410854,0.19397378151637432,0.5905133462648835,0.5565678158212826,0.591644857234762,0.11686035212261968,0.44758141155387465,0.4673463690930087,0.029595791756089264,0.33094225634525687,0.5698591376619029,0.5176839414044637,0.11765483898350541],[0.45542201141646155,0.3326986747878626,0.8432399935339621,0.4965227530923087,0.4517036023943756,0.6165291825085558,0.3658374439222439,0.8062369855004203,0.3245003716361428,0.20741866186652483,0.25544139973156627,0.17995569055051142,0.855398158506529,0.14052010745795837,0.27550011251659834,0.043747034699521806,0.27019352574741323,0,0.8361514655337157,0.356484580980001,0.1554513884823561,0.18431208172805486,0.15358220354096716,0.12118998192263622,0.20103172035634553,0.11775661334543619,0.2577142146038585,0.6683453030967845,0.2800574082862296,0.3073121324587606,0.6071555313666959,0.31255199412663415,0.5594018304325082,0.29154112137149135,0.794640470780213,0.5712620122731187,0.2862654271211619,0.2952559663634154,0.27732205128291654,0.36203358357409604,0.29812191196477866,0.3081096813128317,0.44907557116702157,0.6417854673971881,0.8518743651309176,0.6694816997409748,0.6792520584106989,0.5083174752079549,0.3388459362724956,0.6650898983703056,0.6622400594622468,0.2825258735431303,0.838755102472323,0.5308417810854145,0.741624366177087,0.7270898807079742,0.6870002033409719,0.7736906098318796,0.4966525382646922,0.780898698710953,0.5910433561143233,0.8654322793515604,0.7814007192990726,0.7421212771682644,0.7820942132410882,0.9104351983984378,0.8173720018284882,0.8483895643559589,0.6880500542884268,0.5925540850598818,0.7241709940951319,0.7707061432325314,0.7293412059510259,0.3533435981106114,0.559104830040315,0.7050343718695701,0.582647219902275,0.659019364583298,0.4622812618827087,0.8511888910519463,0.7550289190934669,0.8438845832205114,0.3373032896442433,0.6129200793041257,0.6092852528955417,0.2410150292603992,0.5816943054899045,0.8253901779780164,0.6980488287332374,0.35861682607351075],[0.6870882520173867,0.625434056458772,0.055791737020312045,0.9141713197887968,0.9048943163242645,0.8667739285544751,0.6233833403903148,0.04170412935268121,0.8505676102523388,0.6982083620360381,0.9448784242680132,0.8634972361641371,0.030393618991795695,0.9201970469825002,0.6579256089106886,0.8697740327542464,0.5850556306593115,0.8361514655337157,0,0.6076440112994069,0.7660183192713459,0.6471398404923734,0.6828914751711738,0.8845807290438665,0.8328805801237351,0.9473446664304385,0.5993686281409851,0.27784674632470946,0.5703961473575203,0.5911897230793707,0.8313322369473681,0.7748989535787462,0.8722257648604231,0.7436914189182093,0.04155475554097404,0.8281471401122048,0.6425494234046673,0.5739953710393079,0.5722993350554492,0.630023943407092,0.5820246985854469,0.5733563487007931,0.48454840774758223,0.8571602739190687,0.01846912201749502,0.1619821066679105,0.5156022955520135,0.38814470564782644,0.5365597750914665,0.34356007939238775,0.17065872876054325,0.6300304859937699,0.024400006150301655,0.3023616663602149,0.18957753809692707,0.2267720402470737,0.15188528110236016,0.145191796941987,0.5498588634571686,0.22163187290977357,0.8202950409096095,0.09925702020000815,0.3148344721987031,0.1850794862915969,0.28984005816564207,0.29549584018017605,0.20837578251289693,0.3447979965880577,0.35117198119662524,0.5483090978050402,0.12727715680667226,0.4632732310272193,0.6168410588600031,0.551802438539908,0.383322961503554,0.25363125604875325,0.805746933348275,0.19384833022693898,0.3905335196811277,0.06417968480118602,0.7490271061959355,0.56310000881924,0.6087732596452256,0.7687614069164562,0.8200819206144945,0.603549980038897,0.5163068435919006,0.027082393432615315,0.29591976344744986,0.578427556802961],[0.14020521711514003,0.020307568320029373,0.5919442203687362,0.3297689456824585,0.3078396288510389,0.35810592486654963,0.018824774237360866,0.5663574777104194,0.23822184713583208,0.1452010313784967,0.34615387182931895,0.28216419608538174,0.6366238476898679,0.36293458673331785,0.07724781295224542,0.3616899413809768,0.13696899356790573,0.356484580980001,0.6076440112994069,0,0.4136721639923935,0.2460339076381951,0.29101731919247936,0.46896523288341807,0.4978466419023653,0.4197946829288887,0.13718378620152796,0.5647480888702779,0.3138061216424994,0.06867497011360281,0.33257146755290806,0.5461647690340193,0.32775981849728064,0.50892152759126,0.5614520212589149,0.30724114054611723,0.06551314777000264,0.10914576245358944,0.14720985117040616,0.4874258697852335,0.09291187815990595,0.08990175901701186,0.4599693550414459,0.3694620923758114,0.6158268876109044,0.4591732814799922,0.31863704671290144,0.4479210093530254,0.10376620830306622,0.5993777942612184,0.4415919703280764,0.07194121596125583,0.5991210902989972,0.32812601643366945,0.5959675635800528,0.5998725583847503,0.4523824773365986,0.49837522193742745,0.13563388718965524,0.6508012772827988,0.3157342717011523,0.5992677916372748,0.45201285807929215,0.5941673384811915,0.45906882596501164,0.588677912390162,0.5161979003583819,0.5126674996174275,0.35466723321125654,0.231413907220535,0.476917593913707,0.41460746551700955,0.37136623141876,0.06549343154293161,0.24070499215054028,0.5909039255645194,0.3020865542847271,0.40914794286873823,0.22450041093590004,0.596925481074309,0.4181479821286175,0.48281661791633607,0.016602004047883496,0.3061030646768434,0.32811353904699003,0.16657759438375608,0.22149116294986018,0.5863006591237568,0.6065670285356409,0.027984071653981465],[0.5412933945631674,0.3947142235391146,0.7837919245568923,0.62939117469535,0.5867618958310745,0.7305094718809606,0.43032088313579775,0.7431085553661633,0.4591374708104986,0.2878453493747404,0.4125954684237282,0.32944183460313176,0.7798407632397227,0.3006755479950828,0.3450632599236848,0.2031203477612504,0.28552232504968184,0.1554513884823561,0.7660183192713459,0.4136721639923935,0,0.16798610259744784,0.11959657535698379,0.11947401623982759,0.08094782212121227,0.26679875866561725,0.27894203057756967,0.5587732812059902,0.1920625112644913,0.3462919319520189,0.7153606454099718,0.15631338384715834,0.6793127728478267,0.1318241235356314,0.7289714961732772,0.6818216379456684,0.3495814214075405,0.3167521480371895,0.28391529937843896,0.2105603677539741,0.327409889257714,0.33542008835333365,0.32231923573679444,0.7518098466413531,0.7845078733588545,0.6022377067786356,0.7170177813059618,0.39907108951926945,0.35341704699789234,0.5430399497102847,0.6003005690712683,0.33809163371716894,0.773770631709014,0.47636831522747836,0.6423954208499395,0.6219646103201569,0.629428285455472,0.7307334912849485,0.5436537163519966,0.6737206232126277,0.6984643274790423,0.8126554453872206,0.7735554430901858,0.643728894541927,0.7691460942932217,0.8912151264131472,0.7874176250342185,0.8433656861699476,0.6884036455977298,0.640010118474232,0.6698491286651562,0.7935053706151733,0.7857732329215955,0.38298033713911966,0.5589206603213522,0.5966424095474915,0.6878921784328009,0.6112121126357927,0.4362248392092944,0.7928547768979071,0.8351680762666781,0.8812542747869422,0.3923923962987738,0.7084219049075384,0.7151664554754075,0.25127353367404837,0.6211688936850446,0.7608372372953459,0.5823148190636912,0.4030828306058353],[0.38201865813224484,0.2296662619912344,0.6549713842557875,0.5078693700073718,0.4701910624484842,0.585496732021713,0.26478760213430536,0.6175310859253281,0.3504672442629521,0.1474465799422911,0.35949967689287293,0.26581807687687226,0.6664690326610765,0.2881811073965833,0.18736330409207025,0.22026388810998063,0.11286625819124572,0.18431208172805486,0.6471398404923734,0.2460339076381951,0.16798610259744784,0,0.04423029974135086,0.25320223067653935,0.2536312560487532,0.29913500781034846,0.10697297944864442,0.49062207588512524,0.11263054734519881,0.17567060853728686,0.5660107384968235,0.2963292950370599,0.5410600982405852,0.2598733547166713,0.6057512418516565,0.5350974901236614,0.18797493464833132,0.14416321390610104,0.11158774407328614,0.2615683082987865,0.1554513884823561,0.1630912222464497,0.29468780758559493,0.6031265348504592,0.662947439628577,0.480465615276913,0.5443600864302421,0.334486810153443,0.18109162220161487,0.4963929343054375,0.4734069404783302,0.17360979739472662,0.6499496899720592,0.3422858330968474,0.5579989075640013,0.5461647690340193,0.4986173022703589,0.5885169250645129,0.3716900068265118,0.6004103839492232,0.5488870175870075,0.6782677325721553,0.6114390666360405,0.5581760011764603,0.6092694709373623,0.7349676120796966,0.6367619723470084,0.680416835538942,0.5226447922432397,0.4677010611543726,0.5363423473130846,0.622448177383526,0.614010614136948,0.21042528540849173,0.3923784522510886,0.5260775444254446,0.5369407026021312,0.47214293235811783,0.2803052168782979,0.6630801195465589,0.6688716129346273,0.7087382370559863,0.22479614983473628,0.5507293294413343,0.564093810491558,0.07868776878113294,0.4484894946488992,0.6366001045184279,0.5237723122331556,0.23225076899039102],[0.4232373053983567,0.27320838338065134,0.6935433090393499,0.534674200133499,0.4949710126268495,0.6213634955880932,0.3086888435644337,0.6550867860520925,0.3712300153066064,0.17760186821550078,0.36112657752239763,0.2685622088686227,0.700720667748244,0.27522332642738206,0.22686770229633,0.1955283781683958,0.16136643527465455,0.15358220354096716,0.6828914751711738,0.29101731919247936,0.11959657535698379,0.04423029974135086,0,0.20702675700766374,0.2051354254640609,0.27415811346315894,0.1546455481578708,0.5106434902086784,0.12270916258180913,0.2223463083065605,0.6035249457831545,0.2560632229097672,0.5742153951155251,0.22130137178462259,0.6426007494475395,0.5715022993948911,0.22950082815103284,0.19251925559167374,0.16051404660709523,0.24160021459047162,0.20312700833464592,0.2111190939382776,0.2989253646939519,0.6404565593220065,0.6995049503496468,0.5163679481160905,0.5930544971668031,0.35124198925345057,0.23000267772114452,0.5101033067241336,0.5107804616543387,0.21659752330957718,0.6871062605934137,0.38101869599858884,0.5833538305650557,0.5689115246782234,0.537247295209415,0.630640830824765,0.41940645516058683,0.6227924088456315,0.5864528836044559,0.7184357079672785,0.6587252297902889,0.5838714725673821,0.6560281304428008,0.7809480342415301,0.6812305990741985,0.7279292701072437,0.5706849137714236,0.5157113634683382,0.575886760577121,0.6713659894134227,0.6616004899532468,0.2587145568452487,0.440501955824199,0.5471263582818592,0.575027803021069,0.5130526373958563,0.3253486595752739,0.7019382114757454,0.7135956291662267,0.757541000206174,0.26970968896409564,0.5916007522923011,0.602287880436835,0.1270777305798351,0.4969865115657183,0.6738348763252109,0.5412553639211652,0.2791225413292027],[0.5774986455744041,0.44646598201039667,0.8994955478085591,0.6205847245941006,0.5753906291260072,0.742425194028318,0.4810045605736021,0.8597294584077456,0.44901150592063266,0.32420590003391847,0.3651494233349692,0.30081603570369897,0.8997297491826045,0.2410150292603992,0.3906455788581857,0.15028591635539545,0.36215434828613324,0.12118998192263622,0.8845807290438665,0.46896523288341807,0.11947401623982759,0.25320223067653935,0.20702675700766374,0,0.10430087189672903,0.18239089749583898,0.35202281258594725,0.6828995278919481,0.30961064106665664,0.41149935837244217,0.7328986323262114,0.23185318991411646,0.6851525983678849,0.22457890945259057,0.8462449857882842,0.6970849499429966,0.3994925493806831,0.39116343993546543,0.36517562144899585,0.32687177888218005,0.3977524725854962,0.40714624664098703,0.44614678098634897,0.767625910883892,0.9024179559986117,0.7193941063918369,0.7877059162678235,0.5229990405227476,0.432745193545026,0.6668133736715617,0.7159294551026741,0.3927687006765666,0.8910111532232525,0.588694241997528,0.7659177334461562,0.7459353673858299,0.7438911533786777,0.8408155405865434,0.607246020031357,0.7978240090831269,0.716728105271161,0.9264097718774473,0.8692419967729624,0.7671669406431247,0.8671741155202816,0.9925766421400599,0.8928236511600627,0.9380490440169524,0.7796131207287602,0.7041288163420519,0.7834969330892811,0.8734199013689152,0.844774780348792,0.45461504302498235,0.6493213836656456,0.7207501471467906,0.7081695148453185,0.7223397872068379,0.5370812457504451,0.9082589681329698,0.8770522651506744,0.952968060306121,0.448657458582115,0.7373965153994377,0.7348871351441872,0.32901071846825614,0.690154958349343,0.8779168521197728,0.70644699393271,0.46628069023697016],[0.6224945272386467,0.47827229444105035,0.8542547127462398,0.696789016163599,0.6528927938937175,0.8057930484418271,0.5138647667047058,0.8126554453872206,0.5248948179674108,0.3672022226848421,0.4597846206333112,0.38522686469604894,0.84448630218452,0.3391399475627896,0.42717842268243617,0.2423633656311179,0.3711453155440209,0.20103172035634553,0.8328805801237351,0.4978466419023653,0.08094782212121227,0.2536312560487532,0.2051354254640609,0.10430087189672903,0,0.2882141894576777,0.3644113710450857,0.6091883001722671,0.26652840392894545,0.4313792094176348,0.7923234989460071,0.12315381896174883,0.7524097801537192,0.12044006810890065,0.7977601860859076,0.7579948733470941,0.43256478620330197,0.40234894431328355,0.36955087180229496,0.23389828402041016,0.41283755258759963,0.42093772916367744,0.36751846348606826,0.8283631820615309,0.8522411270746059,0.6717630901791329,0.8026717962954542,0.45351673542461346,0.43904131872995356,0.585137775583064,0.6716157397840057,0.42181166552767113,0.842434792238205,0.5515212899932953,0.6974872197340884,0.6740306940590409,0.7017971545197955,0.8063615856774754,0.6289828128949528,0.7238461626047404,0.7755893558836874,0.8850164709472526,0.8558985414760432,0.6992513296963525,0.8507423910832677,0.9712958338759289,0.8657774269258627,0.9258892904248367,0.7720581461713686,0.7254537084270065,0.7428123236388321,0.8787382878037792,0.8709651894266397,0.4685559174494567,0.6430005255592799,0.6471398404923734,0.7655655796199917,0.6865317560438601,0.5179170779694915,0.8636152139669429,0.9181788434060968,0.9668877232191989,0.4766185879637486,0.7884584735752217,0.7927627835104025,0.33688209553961085,0.7067933881809116,0.8297528204560599,0.6282768401719189,0.4881454190199053],[0.4880358680358722,0.3947973913664493,0.9507380321046074,0.47160267880603557,0.42574010890880726,0.6118523126596941,0.42303023490755165,0.9153275652165981,0.30961064106665664,0.27391477415846016,0.19263152282669466,0.16054755644217591,0.9681691417871703,0.0724990516333448,0.33873712860875044,0.07434174908875336,0.36550481101758836,0.11775661334543619,0.9473446664304385,0.4197946829288887,0.26679875866561725,0.29913500781034846,0.27415811346315894,0.18239089749583898,0.2882141894576777,0,0.35168117011873246,0.789506672780192,0.4014092707778118,0.38687767477322754,0.6094836200616249,0.4122138178189788,0.5496716221464113,0.39764239277321917,0.9046812338161977,0.5723449152380956,0.35262377484609286,0.38528721019034357,0.3756848379556787,0.47988322390154853,0.38393607475679403,0.3940170119572524,0.5715022993948911,0.6408233539567258,0.9620529582110643,0.7811611986009903,0.7399532087125754,0.629934521296009,0.42863751810835105,0.7873966543060833,0.7723325399927782,0.35462100758484605,0.9482253729956714,0.6404544137108266,0.8608816642548615,0.8474397920676175,0.795355362572826,0.8755690390151878,0.5578094540885558,0.9014316275762949,0.5948719162045271,0.9702627629189263,0.8669581644236343,0.8612142382925974,0.870248791500826,1,0.9131493613548207,0.9314182869211786,0.7710595323077065,0.6493213836656456,0.8309612678541198,0.838945457089062,0.7752770644716261,0.43419839846957403,0.6457303638713465,0.8259403026557925,0.5892165523748294,0.7642669687088627,0.5635776402562326,0.9582194211278111,0.7807101379558018,0.9011061785840483,0.4038153985146546,0.6284911194086623,0.6141112852469002,0.34148704744562086,0.6443476854266803,0.9348146607115035,0.8198485998309131,0.43023177736933665],[0.2786686063987662,0.12428558403037274,0.597734836971018,0.43351662412931274,0.4014058622104354,0.4905913338485293,0.15777680037856887,0.5643468548991806,0.2963614817564666,0.0995893630135701,0.3500616792573399,0.2624350709838669,0.6231166080794646,0.3166444748331652,0.09713152893712448,0.2790054663613914,0.009607135362202524,0.2577142146038585,0.5993686281409851,0.13718378620152796,0.27894203057756967,0.10697297944864442,0.1546455481578708,0.35202281258594725,0.3644113710450857,0.35168117011873246,0,0.4916187609976275,0.17735112660274527,0.06472013147401354,0.4680408466688429,0.40473940781978046,0.45220982358654926,0.36726921376397526,0.5551380110606804,0.43960247219436904,0.09094943361988568,0.03445714202248672,0.023920464283745262,0.34906138456603986,0.0438041392900629,0.051890553581504226,0.3413830698967957,0.5052294783093443,0.612310153197701,0.4360741214633555,0.4346743809661866,0.35138196407568817,0.07684142694455366,0.5125390566309929,0.42424534257855195,0.07323070211003922,0.5975509879572443,0.29398419969600353,0.542875656826497,0.5383572424290145,0.444316220114503,0.519429937972807,0.2601086876617959,0.5921483509291328,0.45095992482871483,0.6151483627920303,0.5190362747164571,0.5421167423200935,0.5197177326589952,0.6483046610990693,0.5575731629485403,0.5863123700911734,0.42625434345635854,0.35636191993319366,0.4778479247543583,0.516864488754459,0.5023875273630558,0.09973525882118182,0.2968300984640965,0.5232822680174009,0.43810448268363716,0.4101501742437883,0.20811576780216862,0.6047436010420475,0.5588911875814175,0.599600030111434,0.11642687708781486,0.44667456832554814,0.46483538647865913,0.024731037749468106,0.33809163371716894,0.5841606831854218,0.5300036611324083,0.12080455647042798],[0.6885693918402908,0.5726231161961154,0.3265083736092237,0.8991112036530073,0.8764366523365905,0.9013307967260663,0.5867080644070373,0.2848155677028401,0.787826443323468,0.595183514269266,0.8425148566378158,0.750899893343085,0.27201038408138456,0.7834407317200717,0.5811345724746955,0.7107745419932419,0.47902549224065927,0.6683453030967845,0.27784674632470946,0.5647480888702779,0.5587732812059902,0.49062207588512524,0.5106434902086784,0.6828995278919481,0.6091883001722671,0.789506672780192,0.4916187609976275,0,0.3835832964238585,0.5167715893052113,0.86914695626131,0.5269583062917503,0.8862835782685508,0.5016526778251665,0.2662169069853905,0.8540629158212086,0.5686218650674806,0.4834805824294442,0.4633708336486466,0.38097562872134444,0.49774471622010463,0.49269694524048757,0.23738847232741006,0.9021386560779345,0.30100174286883663,0.19665208034076828,0.6278743238942206,0.15614996018011015,0.4626072152844857,0.06495898421523985,0.21773925255629545,0.5515013802847054,0.30056673891479596,0.24662943827405684,0.09181380926228161,0.06111745671654034,0.2442554490758336,0.34976501138346094,0.5743660155511874,0.11029501708454187,0.8544432444500735,0.37033417734128654,0.5021281297035308,0.09514111261521893,0.48125244561086944,0.542835207940438,0.4321498834509398,0.5578488262959339,0.48352878398547555,0.618451414371881,0.27415811346315894,0.6226357628185656,0.7349395397245928,0.4953088775272822,0.43194386933546874,0.03327281762309637,0.8394178760674065,0.2763928606864083,0.34448100029577344,0.33695908322755586,0.8532823923952012,0.73367142964391,0.5559681863395263,0.8192490487309897,0.8606193522961545,0.4819384563145986,0.5834197375774768,0.29246486994570936,0.0385869504457579,0.5320681407321208],[0.45820542102938294,0.3046611594304766,0.5870707466986799,0.6111424367121225,0.576199010509854,0.6724175928743974,0.3361112621649399,0.5465541260028044,0.4613733196985395,0.2548660869609577,0.4768026135987356,0.38312313407602283,0.585447476417948,0.40060063865043527,0.27740057240780186,0.32291553107192256,0.17358650688924546,0.2800574082862296,0.5703961473575203,0.3138061216424994,0.1920625112644913,0.11263054734519881,0.12270916258180913,0.30961064106665664,0.26652840392894545,0.4014092707778118,0.17735112660274527,0.3835832964238585,0,0.24087978847256258,0.6492113150722669,0.25499937457540234,0.6340999935580935,0.21629707689856528,0.5326300382169853,0.621396660333351,0.2727647287145253,0.1999591249444206,0.1619821066679105,0.16908079694062966,0.21629707689856528,0.21945020584140032,0.17735112660274527,0.6863454900899383,0.5884819220384028,0.40580298799485187,0.5678269633023694,0.2238472270313279,0.21799424721009622,0.3831088567483919,0.4035442303381638,0.25525509522631196,0.5774296902995393,0.28051883952445256,0.4585641236296723,0.442694799468368,0.43269772514295657,0.5353205457985442,0.41446878939462,0.4963349192947535,0.6321815219844812,0.6159607193337769,0.5901853407093186,0.4593164965213007,0.5833279365034354,0.7014365476178349,0.5948141950867265,0.6604027613725931,0.5115103622282454,0.5040037251661338,0.4732245037274179,0.6292863796468579,0.651645432644752,0.2575770288980473,0.38639661332830183,0.42030308300615443,0.6190575546824119,0.41554727325891533,0.25317002500001234,0.596105819011638,0.7252413435001801,0.7263953335801215,0.2944611673650065,0.6244667401503835,0.6455536983818909,0.15106987960922835,0.4784671501410302,0.5644319887724106,0.41384417825210995,0.29037064142930397],[0.21262111672823594,0.060270815040252515,0.582649576683226,0.3855533289193655,0.35801052782389126,0.42836910674632533,0.09054337393935316,0.5528188617358638,0.2676488760917068,0.11001783273128404,0.3490418193984157,0.2709679068525916,0.6176979130285942,0.3401850750220256,0.06286088157885239,0.32058762786615874,0.06359444189093254,0.3073121324587606,0.5911897230793707,0.06867497011360281,0.3462919319520189,0.17567060853728686,0.2223463083065605,0.41149935837244217,0.4313792094176348,0.38687767477322754,0.06472013147401354,0.5167715893052113,0.24087978847256258,0,0.4040897730316701,0.47415044649248766,0.3941419752688592,0.43662650156249455,0.5456594507634662,0.377344269187287,0.04838208958616526,0.036891073682983805,0.07420153089827113,0.41431024619874973,0.020029319821658544,0.020307568320029373,0.3927826310342002,0.4411482120270385,0.6018681184063585,0.43387973775756355,0.3715870175972572,0.3890738484893555,0.05159628773764811,0.545561350180971,0.418955795952195,0.03413772570545037,0.5860523319841273,0.2951359574928699,0.5574081925718908,0.5574081925718908,0.43460191361506123,0.49640950878913376,0.19324086151404454,0.6099612417159738,0.3871250497000572,0.5953380991540528,0.4753976365065077,0.5560866824848248,0.47881082158062965,0.6086987933299692,0.5254982597929981,0.5403443721471433,0.3798001887016567,0.2901219026914606,0.46407415379958156,0.45908971895003464,0.4348885623941798,0.042619725046036644,0.25437499805749936,0.5455814748031383,0.37379145323799323,0.3954724892223276,0.19651454052014317,0.5887268998642253,0.48946654010875285,0.5368563592061336,0.04887522037921736,0.37939676450006893,0.40013930337158127,0.09412387118680432,0.2741630773605048,0.5728460598341036,0.5573047536135296,0.05208588374676524],[0.18797493464833132,0.33984776511270154,0.7954089969599175,0.17020029891900787,0.2045805675300165,0.031019054609998348,0.309469679954261,0.7851776097512259,0.29592436802493316,0.42324700936924875,0.4352725677389285,0.44504933853734086,0.8652922726483402,0.5329777078458062,0.3740071703882852,0.5879776492483713,0.4709250437296201,0.6071555313666959,0.8313322369473681,0.33257146755290806,0.7153606454099718,0.5660107384968235,0.6035249457831545,0.7328986323262114,0.7923234989460071,0.6094836200616249,0.4680408466688429,0.86914695626131,0.6492113150722669,0.4040897730316701,0,0.8642733634949546,0.0743592588780141,0.8292749266047236,0.787286548873441,0.03249953333348447,0.374865166142534,0.4455445947133239,0.48285920686665035,0.8217970682315037,0.42881636669174633,0.42688023839742617,0.7955491214558585,0.03249953333348447,0.8313885303684253,0.7197152016268884,0.33780076412930826,0.7739822054905865,0.438491948348928,0.9142496531561983,0.6975621268832889,0.39116343993546543,0.813467959228736,0.6183092302144357,0.878661506536048,0.8913263649459888,0.6950879354647399,0.6901589426335162,0.2913214243904833,0.9366060497108595,0.01242460957677028,0.7848165135831158,0.5630317429547017,0.8758237532936636,0.5827697599747835,0.687060237745063,0.6675921288808374,0.591969740507926,0.48663483893838544,0.2796633860824619,0.7035446660419453,0.4388665928672068,0.2819566285316017,0.39765615439672536,0.4513728915012911,0.8889316850099533,0.025974434812059737,0.6470676337866352,0.5211490787253914,0.7964601972071684,0.20291376400311215,0.42589444375487445,0.3507010135540505,0.06357417163215395,0.008289208160578331,0.49612766796863705,0.3104506914752571,0.8029803510251742,0.9123527111304272,0.3602931753542908],[0.6828753694466931,0.5306116874962751,0.8040285565447639,0.7877198913587138,0.7457988907894503,0.8817400625639726,0.5655642743817818,0.7609023302208907,0.6186690710131577,0.4373160059663133,0.5721265774685121,0.4903537173777436,0.781809145083528,0.45643473975154647,0.4871416955454475,0.3582661354551816,0.40725378693662495,0.31255199412663415,0.7748989535787462,0.5461647690340193,0.15631338384715834,0.2963292950370599,0.2560632229097672,0.23185318991411646,0.12315381896174883,0.4122138178189788,0.40473940781978046,0.5269583062917503,0.25499937457540234,0.47415044649248766,0.8642733634949546,0,0.8332490475696231,0.03410207272018228,0.7445177517785513,0.8320720274704017,0.4887629433803037,0.4380763469780184,0.40085329606054204,0.1418390366146724,0.45189160630461206,0.4580139992771025,0.2883370329870942,0.9011795294073818,0.7958465884314299,0.622660034481792,0.8255769278209133,0.38309814840772316,0.466677298471127,0.49234059534773345,0.6267858099885061,0.4746445138904195,0.7882298136120526,0.5203587621570694,0.6204053814532858,0.5927788590088003,0.6589338494688359,0.770518674569366,0.6642440849242572,0.6388754547077495,0.8472074644551577,0.8390504619428949,0.8446574451205523,0.6228188803675266,0.8359127246684754,0.9484824555239415,0.8378158283898951,0.9147390855010984,0.7695895893343816,0.757384805358675,0.700659833518251,0.8889905459661338,0.905192548003178,0.5026085932440092,0.645855916191674,0.5641522153455083,0.8357957992368509,0.6520502418171149,0.5109871927516384,0.813970298323735,0.9683057268298197,0.9855478348404179,0.525075138816422,0.8515252299267573,0.8630538789402156,0.3753207576353552,0.7339806969868347,0.7762986446916755,0.5394369430984977,0.529576335527074],[0.19300995410879151,0.32928852051928115,0.8402652710977259,0.09185682493825863,0.12969869021645916,0.060014662892228655,0.3042626717454036,0.8266166232565696,0.23593750279966222,0.3919075531612133,0.3674254793830348,0.3879508574856917,0.9053933428382182,0.4725288676782721,0.3525656613875883,0.5356178101272155,0.45737934833352023,0.5594018304325082,0.8722257648604231,0.32775981849728064,0.6793127728478267,0.5410600982405852,0.5742153951155251,0.6851525983678849,0.7524097801537192,0.5496716221464113,0.45220982358654926,0.8862835782685508,0.6340999935580935,0.3941419752688592,0.0743592588780141,0.8332490475696231,0,0.799848187151109,0.827174257019267,0.04838208958616526,0.3566378487347304,0.4355210482595997,0.470843546197359,0.8035440160945991,0.41855371700734784,0.4184654046402378,0.7913798682051988,0.09257095253741758,0.8740959109667223,0.7500842155761167,0.398892779004425,0.7793324471601231,0.4362248392092944,0.9266594996597403,0.7288337505192367,0.37428486237971137,0.8562346483112363,0.6383956298710618,0.9039822771369667,0.9136800775873778,0.7296805713873298,0.7358055492147648,0.3199913206685791,0.9612450502183489,0.07007639197391594,0.8331152283588943,0.6199357457807826,0.9014682905583102,0.6381781922710795,0.7483436010568196,0.7202462254053369,0.6541987212898411,0.5376762337028296,0.3297523907854359,0.74206010821779,0.5042512878105261,0.3544013546002069,0.3969674956552617,0.48594975197144624,0.90878343342856,0.078054598668676,0.6819627664839086,0.5372549578023668,0.8421373439094639,0.2819662861690033,0.4998698583395323,0.3428558392800721,0.13444521461666403,0.08571214344737622,0.4785101224379623,0.35669913763688754,0.8451120288876423,0.9290967751779614,0.3586663528913888],[0.646598095073093,0.493806120076534,0.7713110900587938,0.7566306239909151,0.7153145060110284,0.8473683133953863,0.5285960806764592,0.7284052527728097,0.5888201981532375,0.4033678743948424,0.5490295283913732,0.46474988314005744,0.7516634492098269,0.4366045451021064,0.45139413702082204,0.3386363500267609,0.36944359401044197,0.29154112137149135,0.7436914189182093,0.50892152759126,0.1318241235356314,0.2598733547166713,0.22130137178462259,0.22457890945259057,0.12044006810890065,0.39764239277321917,0.36726921376397526,0.5016526778251665,0.21629707689856528,0.43662650156249455,0.8292749266047236,0.03410207272018228,0.799848187151109,0,0.7122820476860212,0.7974634287262862,0.4525369017466528,0.40013588411171597,0.36274627509862395,0.11662099157355511,0.414145033221939,0.4201076165187813,0.2606517697049984,0.866265489635235,0.7643371713074419,0.5893866703858289,0.7867917593412891,0.3535909448292318,0.42822524649164084,0.47082025862270865,0.5927788590088003,0.4380888519567841,0.7562596198535834,0.48411815935431535,0.5937418805865194,0.5673456203463696,0.6246757183784664,0.7353960511532233,0.6258974022065246,0.6147998838943873,0.8121828003253896,0.805615405518972,0.806975772556668,0.5959675635800528,0.7985102168680137,0.911940535215032,0.8017522897044692,0.8771009304795311,0.7312998242450444,0.7188318468466732,0.6663700277040269,0.8502843247195062,0.866659555663768,0.46441066474342574,0.6072618541720303,0.5392130305317309,0.8005773646887635,0.6165403236456711,0.47267097572465755,0.7811594371490217,0.9306682753651151,0.9467425269007783,0.48790100261037905,0.8153083647784727,0.8278046819065561,0.33783309516963406,0.6952936281322117,0.7441592316110237,0.516506071068617,0.49180280297846113],[0.6412713756733628,0.5793360297898267,0.05703738000843285,0.8682974686195006,0.8587777311600352,0.8226474527868554,0.577137133988727,0.013896669887072131,0.8043793675110162,0.6533052505780904,0.8993990943150451,0.8185296836377451,0.07351436781818818,0.8762606839474866,0.6122540635559168,0.827438794215626,0.5408267021491904,0.794640470780213,0.04155475554097404,0.5614520212589149,0.7289714961732772,0.6057512418516565,0.6426007494475395,0.8462449857882842,0.7977601860859076,0.9046812338161977,0.5551380110606804,0.2662169069853905,0.5326300382169853,0.5456594507634662,0.787286548873441,0.7445177517785513,0.827174257019267,0.7122820476860212,0,0.7835022017621917,0.5968426446593934,0.5291201445085559,0.5283052885830467,0.6009705872168034,0.5368640273303782,0.5281052769573202,0.4570586980014009,0.8135914583638921,0.05266788436960417,0.12215387831903424,0.4756080686653886,0.36053960573494326,0.4912560543249459,0.3346010605188228,0.12774828437199934,0.5844896932550073,0.04009543436592623,0.2595592514619556,0.18736330409207025,0.22346533957610218,0.10651341798169704,0.11048744760715158,0.50430296152009,0.22924062432977813,0.7760274178221133,0.09953625936625123,0.28315170465000233,0.18266444761402548,0.2584411569268463,0.28226068797833753,0.18357831236161115,0.3201788494386235,0.311192119400883,0.504976958945265,0.08118989707121778,0.4289344940370442,0.5783420923067806,0.5059374946964514,0.33766736631588506,0.24733343021870888,0.7614156471667173,0.14761934138656574,0.3453362314601052,0.0675342608160334,0.7098162060156323,0.5317585882174055,0.5627024887028754,0.725248929025719,0.7761532929866458,0.5600492891408998,0.47255207188221876,0.0272993828935431,0.29027210965997013,0.5323156542716926],[0.16473311473879507,0.312573809458381,0.7944742057854852,0.13890983999189505,0.17012905552113902,0.04633485683971945,0.2838385510990863,0.7822630937925457,0.2587198117551389,0.39034785174884695,0.39836080851265226,0.4080057843976114,0.8616888943596405,0.49580418453729547,0.34354020515075584,0.5514441359022657,0.4432266542038773,0.5712620122731187,0.8281471401122048,0.30724114054611723,0.6818216379456684,0.5350974901236614,0.5715022993948911,0.6970849499429966,0.7579948733470941,0.5723449152380956,0.43960247219436904,0.8540629158212086,0.621396660333351,0.377344269187287,0.03249953333348447,0.8320720274704017,0.04838208958616526,0.7974634287262862,0.7835022017621917,0,0.34534414050413204,0.41893292365161966,0.4556987043068317,0.7931983564826438,0.4020631865092829,0.4007508863565517,0.7717034287174975,0.06588670983076303,0.8292334298453914,0.710793889088549,0.3471309583687804,0.7537743211707533,0.4146107667704615,0.8971287000513873,0.6890743740300773,0.36212416083535326,0.8113333849441509,0.6042414285868112,0.8674011240738011,0.878661506536048,0.6883297459444717,0.6896009203842572,0.28026635919238324,0.9250648470511155,0.020307568320029373,0.7859378260341747,0.5695771873344385,0.8647176910157732,0.5883045416193162,0.6968363739571892,0.6713700844256305,0.6024110163818255,0.489163920155241,0.28102313088826414,0.698916961310976,0.4517248325202891,0.3013863866096182,0.37419719215836933,0.4441527996372313,0.8751002979377502,0.02505838795491954,0.6404072084594141,0.5050557149642595,0.7960108396769648,0.233933090537954,0.4469811379239626,0.3244120578200624,0.08181612230469375,0.039347649534084546,0.46721145754538007,0.3094828977451099,0.8004742192992267,0.8971317699342836,0.33629398543855676],[0.18940646345413364,0.042267418023289795,0.6324661849477612,0.33972319824329095,0.30969870966872837,0.39620860476727965,0.07723092044325187,0.6035590831491678,0.21493368000595195,0.0754373948754987,0.2985512936107016,0.22450041093590004,0.6695063381096017,0.29958570633330095,0.010990919813027826,0.29225517940774465,0.09728094081439669,0.2862654271211619,0.6425494234046673,0.06551314777000264,0.3495814214075405,0.18797493464833132,0.22950082815103284,0.3994925493806831,0.43256478620330197,0.35262377484609286,0.09094943361988568,0.5686218650674806,0.2727647287145253,0.04838208958616526,0.374865166142534,0.4887629433803037,0.3566378487347304,0.4525369017466528,0.5968426446593934,0.34534414050413204,0,0.08176811213775065,0.1118730700493956,0.44331008569332425,0.06637524786333791,0.07132469023462579,0.4350931971366973,0.4120643811427032,0.6527559526548091,0.486369939221077,0.38865178290561336,0.43761654377993825,0.1046685190296944,0.595780868254274,0.4710909062867816,0.013596604027282353,0.636736076239375,0.34810141539633604,0.6103934846844088,0.6100783375275676,0.485983605877572,0.5440499001267775,0.20576775772247025,0.6627649616773699,0.3577394633091981,0.6437459725552593,0.5126674996174275,0.6090958426157358,0.5178958880339893,0.6479335869949393,0.5692613350074068,0.5754836860891229,0.41583374351742913,0.3016169410192936,0.5145183544204817,0.4832224813693261,0.4405765717156811,0.08717010785117504,0.295020519033874,0.5978795785899834,0.34534414050413204,0.4459410221177017,0.2487136992577919,0.6382793852519085,0.48097320977777047,0.552995118139005,0.04698165413519311,0.35808303186407064,0.37235140875867556,0.11740570011180018,0.29131674821514364,0.623594882160661,0.6088206425945034,0.07328396802057624],[0.2537758913907581,0.10183479447677835,0.569442187755162,0.42483871711342147,0.39588045743602907,0.46995489885645286,0.1316313484961619,0.5374694664369343,0.2996812232585127,0.11950745344632124,0.3684841247658492,0.28481556770284006,0.5990133338017156,0.34581045822879336,0.09316679304204194,0.31443133725764094,0.026688033185395865,0.2952559663634154,0.5739953710393079,0.10914576245358944,0.3167521480371895,0.14416321390610104,0.19251925559167374,0.39116343993546543,0.40234894431328355,0.38528721019034357,0.03445714202248672,0.4834805824294442,0.1999591249444206,0.036891073682983805,0.4455445947133239,0.4380763469780184,0.4355210482595997,0.40013588411171597,0.5291201445085559,0.41893292365161966,0.08176811213775065,0,0.03359944676216943,0.3736268405268903,0.012262228631119311,0.015329703549369515,0.35176272818024,0.48257521022068484,0.5859750012816609,0.4130496753509169,0.3960462917761767,0.35117198119662524,0.03906393668098311,0.5094467989620219,0.39975616658779767,0.06389777707151875,0.5707426496654737,0.2719053122831013,0.5286557772881345,0.526679643148409,0.4179351429210982,0.4879656302335564,0.22326504798195407,0.579850125496361,0.4285991838077127,0.5850274640514366,0.48156568258522886,0.5275854151183438,0.48285636771903484,0.6118792538668651,0.5231564078922742,0.5484292347308196,0.38814470564782644,0.31891092139643035,0.4498527857999055,0.47770160276853973,0.46557478306380573,0.061557613397501695,0.25921855108869857,0.5134802325350252,0.41520456960484553,0.38159246755772364,0.17945275893489704,0.5760870012182774,0.5261375242619479,0.560830646107602,0.09015017016261825,0.41984685454526416,0.44147719407053476,0.06078011355906031,0.2997676175137356,0.5574081925718908,0.5232612934134427,0.08733569155485964],[0.29152710302807167,0.13844643668572962,0.5717616969888925,0.45623957958546757,0.4254023083615576,0.5067392697060437,0.16942296813624783,0.5378165863082902,0.3230591562659416,0.12820732773199636,0.378671697577214,0.29079723278220837,0.5956702065919645,0.3432499119510563,0.12036261583750774,0.3015310684872012,0.011078859511594406,0.27732205128291654,0.5722993350554492,0.14720985117040616,0.28391529937843896,0.11158774407328614,0.16051404660709523,0.36517562144899585,0.36955087180229496,0.3756848379556787,0.023920464283745262,0.4633708336486466,0.1619821066679105,0.07420153089827113,0.48285920686665035,0.40085329606054204,0.470843546197359,0.36274627509862395,0.5283052885830467,0.4556987043068317,0.1118730700493956,0.03359944676216943,0,0.33551368224007033,0.049619264140022185,0.053529980579913414,0.3185171535667448,0.5199473270559557,0.5855530191073391,0.40846503688183194,0.42853209061973835,0.3245928654687828,0.06481975317116549,0.48517046641742373,0.3970364146512074,0.0935901821271099,0.570973535337372,0.26632418404719754,0.5142490159432702,0.5098020629076172,0.4177058115329202,0.49523966151706594,0.2591870796481611,0.5635678966886813,0.46586903974171723,0.5900666558554001,0.5012916921830756,0.5134909178928178,0.5009030713869479,0.6286856571287811,0.5356895390868679,0.5693457400468217,0.410083434158446,0.3538998883127041,0.4518461285869754,0.5063547913714938,0.5011521514664242,0.09715871103356383,0.2799407178284497,0.4948629584358298,0.45260955401388664,0.38449131895758304,0.18318825277117987,0.578930593872517,0.5640061919644156,0.5926328814324412,0.1277796333080853,0.4580020327881993,0.4790083220937936,0.03193719779864894,0.3332602753388718,0.5575707010599291,0.5019614990869053,0.12548195603656437],[0.6315226150824657,0.477526531887678,0.6611495152847232,0.7740408670312197,0.7364352481013758,0.844134128213018,0.5095544806203619,0.617731273083642,0.6154698618235469,0.41365562043250836,0.6035090143566396,0.5126434189864922,0.6360300044552701,0.5041968887636231,0.44635551491096287,0.41044370315605383,0.34651665656496605,0.36203358357409604,0.630023943407092,0.4874258697852335,0.2105603677539741,0.2615683082987865,0.24160021459047162,0.32687177888218005,0.23389828402041016,0.47988322390154853,0.34906138456603986,0.38097562872134444,0.16908079694062966,0.41431024619874973,0.8217970682315037,0.1418390366146724,0.8035440160945991,0.11662099157355511,0.6009705872168034,0.7931983564826438,0.44331008569332425,0.3736268405268903,0.33551368224007033,0,0.38983242872871654,0.3931968360996418,0.14191458513376423,0.8589797003334623,0.6512804687634869,0.48126953646997456,0.7300273162649015,0.2373827543887022,0.3908696019795464,0.3496048637226535,0.48711355054876604,0.42636996169056485,0.6442453056144363,0.3899552095508595,0.47396250933124445,0.4467573626330927,0.5197995536820974,0.6336079045803834,0.5854498220161086,0.49368948107382493,0.8047214755859534,0.697451734611086,0.721301387726423,0.4763395399028809,0.7102810141786136,0.8169425048599785,0.7043416477565168,0.7906405179691564,0.653698527066448,0.6721783637203883,0.5614520212589149,0.7811946654382794,0.8189079328709834,0.4309314031257357,0.5371425622455507,0.4183803456792376,0.7918092458364718,0.5171139082752318,0.39909851491761855,0.6712349359238516,0.8974878054647323,0.8834826464363404,0.46786512604318553,0.7981792551767619,0.8184624211335212,0.32128901817712097,0.6447485176296097,0.6325639405930638,0.395188740779964,0.46413616080588077],[0.2372454833208502,0.08489706229119269,0.5758772235858568,0.4083444068567484,0.37980018870165666,0.45309058406430314,0.11511704346296074,0.5447431641799696,0.28545077263409574,0.1125833483324667,0.3588491626946903,0.27716003238003123,0.6076462718743975,0.34148704744562086,0.07875413883727347,0.31484746808417047,0.040064526029770335,0.29812191196477866,0.5820246985854469,0.09291187815990595,0.327409889257714,0.1554513884823561,0.20312700833464592,0.3977524725854962,0.41283755258759963,0.38393607475679403,0.0438041392900629,0.49774471622010463,0.21629707689856528,0.020029319821658544,0.42881636669174633,0.45189160630461206,0.41855371700734784,0.414145033221939,0.5368640273303782,0.4020631865092829,0.06637524786333791,0.012262228631119311,0.049619264140022185,0.38983242872871654,0,0.005414858382436188,0.36866583508071643,0.46586903974171723,0.5934920143687225,0.4224213847810078,0.38693423138927735,0.3670905440627623,0.04152482286291271,0.5247588834139584,0.40846503688183194,0.04905575995097952,0.5780191133121875,0.28206767172543373,0.5412046522772253,0.5399861564263336,0.42564683811803716,0.4924297067678289,0.21159959610074472,0.5929363820942075,0.4118550797332632,0.5903086547869536,0.48008314292712867,0.5400369815034235,0.482242723884003,0.6117086063347758,0.5251770321524203,0.5462125114606039,0.3856703636886669,0.30791048485340256,0.45661181365070064,0.4710909062867816,0.45387910550060906,0.05220762467383487,0.2579145878825998,0.5273044785029164,0.3985084577680579,0.38814470564782644,0.18682200804820806,0.5822983119901304,0.5118320493002444,0.5520287469946508,0.07351436781818818,0.40372051013216487,0.4248354944671464,0.0724990516333448,0.2900655553450358,0.5647286416234165,0.5378165863082902,0.07298164497024097],[0.2347669292648979,0.08447896826077643,0.5667136966103155,0.41056705676532307,0.3829089189433368,0.4517369635774628,0.11272488845865404,0.5358304075462006,0.29094709664874613,0.12201194609726981,0.3671501101684231,0.2862035744486862,0.5991944454227767,0.3512614334924244,0.08466502930130634,0.3249667802268533,0.04622625873711181,0.3081096813128317,0.5733563487007931,0.08990175901701186,0.33542008835333365,0.1630912222464497,0.2111190939382776,0.40714624664098703,0.42093772916367744,0.3940170119572524,0.051890553581504226,0.49269694524048757,0.21945020584140032,0.020307568320029373,0.42688023839742617,0.4580139992771025,0.4184654046402378,0.4201076165187813,0.5281052769573202,0.4007508863565517,0.07132469023462579,0.015329703549369515,0.053529980579913414,0.3931968360996418,0.005414858382436188,0,0.3682615017683133,0.4638496789048521,0.5846494318744027,0.41431024619874973,0.3781658645756157,0.36409621938343567,0.03223817526775886,0.5208409966329977,0.4000880114409736,0.054939124044075124,0.5691021374380594,0.27439132120175413,0.5347742804683162,0.5341067271079547,0.41690216932070084,0.48281661791633607,0.203944637432194,0.5868765638349932,0.40997996579881224,0.5808556873247647,0.4699694802585734,0.5335412276031085,0.4721226113199927,0.6015942039907447,0.515200409086775,0.5361273916340086,0.3755938505523835,0.29993124470054267,0.447559986928939,0.46160195526523273,0.4462849245426929,0.04320114634163627,0.24779435824455048,0.5218514628224886,0.39646747884990174,0.3790506347788309,0.1781174634972673,0.5730737091384199,0.5061109580889007,0.5431688219417665,0.07163357548900548,0.4003136473482804,0.4226157929011331,0.07977620745911185,0.281502351980065,0.5558274396314126,0.5330420664433682,0.06730395059850379],[0.6030604872413687,0.45744225359069685,0.5178852927440363,0.7793324471601231,0.74743865639686,0.8224098349070875,0.48346924019518067,0.4742313813124679,0.6380382182792886,0.4318075296387616,0.6588274616284354,0.5651538986206452,0.48970178312397017,0.5788333422241932,0.4429577136316408,0.4950873525530323,0.3332643711822557,0.44907557116702157,0.48454840774758223,0.4599693550414459,0.32231923573679444,0.29468780758559493,0.2989253646939519,0.44614678098634897,0.36751846348606826,0.5715022993948911,0.3413830698967957,0.23738847232741006,0.17735112660274527,0.3927826310342002,0.7955491214558585,0.2883370329870942,0.7913798682051988,0.2606517697049984,0.4570586980014009,0.7717034287174975,0.4350931971366973,0.35176272818024,0.3185171535667448,0.14191458513376423,0.36866583508071643,0.3682615017683133,0,0.8319462926859519,0.5061082481763988,0.34087472994013523,0.645983571672391,0.09185682493825863,0.35247653572077553,0.2160150369620213,0.34921786697029766,0.4168135109388631,0.4997271801125817,0.26987610402121265,0.3284087118416095,0.30273560381121417,0.38232636926634983,0.4981220133397205,0.5274527690872426,0.35172777701043284,0.778993386607443,0.5556199589901696,0.6025386865437952,0.3306121616572794,0.5887455606954435,0.6868500945299003,0.5727310028983671,0.670023536021853,0.5459310227014212,0.6025614819625369,0.4234701400002321,0.680954068212664,0.7436544252051372,0.3931968360996418,0.44288349469100524,0.2752480505969736,0.7648841720525908,0.38584053347305275,0.3087771711322437,0.5281156690204859,0.8381312259095981,0.7883432790863971,0.4439029287989026,0.7608734007150295,0.7900450590458225,0.32036627002653106,0.5712523987031182,0.48835602557634483,0.2565246447224547,0.4307947464623516],[0.22470565800889045,0.376978145037307,0.8196437602655625,0.18826208999127603,0.226933447038448,0.028613191535916474,0.3464220532052671,0.8108718547710108,0.32659195033706623,0.45990977132229893,0.4628500508945982,0.4770871397914757,0.8913773446585567,0.5640061919644155,0.41114999020492543,0.6215469851503773,0.5080664765570784,0.6417854673971881,0.8571602739190687,0.3694620923758114,0.7518098466413531,0.6031265348504592,0.6404565593220065,0.767625910883892,0.8283631820615309,0.6408233539567258,0.5052294783093443,0.9021386560779345,0.6863454900899383,0.4411482120270385,0.03249953333348447,0.9011795294073818,0.09257095253741758,0.866265489635235,0.8135914583638921,0.06588670983076303,0.4120643811427032,0.48257521022068484,0.5199473270559557,0.8589797003334623,0.46586903974171723,0.4638496789048521,0.8319462926859519,0,0.856475792454594,0.7494493935526583,0.35529838856998486,0.8092357308944291,0.47502843675080214,0.9481788873951875,0.7270615061443596,0.42836910674632533,0.8385630633407468,0.6510018625841284,0.9096165018493864,0.9230527565193246,0.7235097809070338,0.7142832879603819,0.32335043763376553,0.9676809780814828,0.049619264140022185,0.8074940575579762,0.5817415158996944,0.9066928744703275,0.6022855999059807,0.7024962858283919,0.6883557115854207,0.6070446645114346,0.508948477651417,0.30420890374244913,0.7305490096766495,0.4522704112783776,0.2897695548849552,0.4341226980722544,0.4806053993050554,0.9212785002477966,0.06267624371243664,0.6755016003404057,0.5549179071354016,0.8203285981433104,0.19530703271261904,0.43030815485805224,0.3877216407498609,0.0837151557277256,0.037420153987833556,0.5333302984608499,0.3363548714422317,0.8283581971096322,0.9453885031387611,0.39691235194327057],[0.6910826799143303,0.6342126654324183,0.03969194768328169,0.9182508374023421,0.9100902547976739,0.8669391073464493,0.630945783473337,0.0447648332026573,0.8586863486321147,0.7101164291867506,0.955602375511817,0.8752702061020159,0.042267418023289795,0.93349949010662,0.6682239467595802,0.8847908455384637,0.5980013184270633,0.8518743651309176,0.01846912201749502,0.6158268876109044,0.7845078733588545,0.662947439628577,0.6995049503496468,0.9024179559986117,0.8522411270746059,0.9620529582110643,0.612310153197701,0.30100174286883663,0.5884819220384028,0.6018681184063585,0.8313885303684253,0.7958465884314299,0.8740959109667223,0.7643371713074419,0.05266788436960417,0.8292334298453914,0.6527559526548091,0.5859750012816609,0.5855530191073391,0.6512804687634869,0.5934920143687225,0.5846494318744027,0.5061082481763988,0.856475792454594,0,0.17854853602902568,0.5111992073920715,0.4096159525425127,0.547758135961432,0.3667254932259533,0.1850794862915969,0.6406710844170094,0.013214457610766363,0.3169200462577087,0.21259563723810943,0.24979838398037493,0.1633797112008591,0.1395253950595658,0.5531837252591716,0.24348696117350876,0.8207211164207765,0.07977620745911185,0.30499656557103866,0.20811576780216862,0.2799942068919201,0.2774790716833294,0.1958047163784478,0.3310535900561108,0.3472371709853363,0.547587727465854,0.13420625953220597,0.4545306510807522,0.6109288646087667,0.561566925369039,0.387199231729692,0.2767619542210042,0.8062899002429639,0.20237969248810328,0.40200873368795925,0.04598106230330379,0.7435822822043113,0.5522499926904229,0.6176979130285942,0.7680559479099808,0.8199610720466548,0.617388691420385,0.5162377602818112,0.024918537933742938,0.31900501230368805,0.5871549507822403],[0.5565456187461116,0.47442788038608646,0.17794323386468802,0.7805444490900895,0.7662140647624063,0.7540370830935413,0.47726237027771395,0.13626374765926985,0.7003222063027779,0.5369202569243283,0.785948330814203,0.7021047008153194,0.18272354109217162,0.7557209782618193,0.5013491389415308,0.7033863350098807,0.4217986833075706,0.6694816997409748,0.1619821066679105,0.4591732814799922,0.6022377067786356,0.480465615276913,0.5163679481160905,0.7193941063918369,0.6717630901791329,0.7811611986009903,0.4360741214633555,0.19665208034076828,0.40580298799485187,0.43387973775756355,0.7197152016268884,0.622660034481792,0.7500842155761167,0.5893866703858289,0.12215387831903424,0.710793889088549,0.486369939221077,0.4130496753509169,0.40846503688183194,0.48126953646997456,0.4224213847810078,0.41431024619874973,0.34087472994013523,0.7494493935526583,0.17854853602902568,0,0.4417284226021737,0.2459013753109881,0.37807908323045886,0.26479273862703345,0.018824774237360866,0.4725636735611334,0.16694088611975508,0.1374372135844595,0.16143310433749022,0.18478750814969422,0.043546636441755646,0.15757220471218783,0.425945876412515,0.2191474043862126,0.706738910376438,0.21170196515032777,0.30078431831994273,0.15772567562175097,0.28013031554627094,0.3519878869008762,0.23803943446457165,0.3577394633091981,0.2878453493747404,0.44838868640184476,0.08013591739295743,0.42460662474976757,0.5489470266071993,0.3979587911223623,0.26425287129205066,0.1955283781683958,0.6917508282863113,0.07848834092530782,0.23306722087677648,0.18751459383067481,0.6737859130613759,0.5349820803243082,0.45739133094747586,0.6626322190998477,0.7096534517085654,0.4386262323658487,0.41367547262587107,0.15392290028364697,0.23387507685432118,0.4281644911402575],[0.27471352181627595,0.34308278413894433,0.4710996342934322,0.4709250437296202,0.4815599891684994,0.37300065794064735,0.31255199412663415,0.4694442672793959,0.49263849909470686,0.46854421752087616,0.6325986945423115,0.59023420406154,0.5506445875829091,0.6775620341637362,0.4004981650908423,0.6848154082669644,0.4270149277709892,0.6792520584106989,0.5156022955520135,0.31863704671290144,0.7170177813059618,0.5443600864302421,0.5930544971668031,0.7877059162678235,0.8026717962954542,0.7399532087125754,0.4346743809661866,0.6278743238942206,0.5678269633023694,0.3715870175972572,0.33780076412930826,0.8255769278209133,0.398892779004425,0.7867917593412891,0.4756080686653886,0.3471309583687804,0.38865178290561336,0.3960462917761767,0.42853209061973835,0.7300273162649015,0.38693423138927735,0.3781658645756157,0.645983571672391,0.35529838856998486,0.5111992073920715,0.4417284226021737,0,0.5871993869969194,0.35920309535498396,0.6876103105355156,0.4182003568893116,0.3921587688750843,0.4935867050461282,0.3919319838937462,0.6078248309355252,0.6299781434119243,0.40444178658074564,0.36696765882059174,0.17836715551979582,0.6652386840870139,0.3315191422426683,0.4535892323616342,0.2219008137263477,0.6040436271500228,0.2430850648334492,0.3450632599236848,0.33066169657313205,0.2506075179614644,0.15978351875387445,0.08754600460719142,0.39967401862016194,0.10546297310833719,0.10267600574055963,0.3302610796269564,0.20076914915972058,0.6365396633877813,0.31920593312932893,0.3593514163254027,0.33278071852605934,0.47031929963208835,0.22999677984647734,0.1605643088118273,0.3372951946494327,0.2698357702399984,0.3251053150460015,0.46131688587598607,0.09295441018068194,0.48494152764395815,0.6697690913729778,0.31694586897441274],[0.5844920426661026,0.4506347539717615,0.4214610067736101,0.7790852299899412,0.7515792578545449,0.8034206944262503,0.4711781791498272,0.37777519346485783,0.6523178691668648,0.45161563849334857,0.6932736395994787,0.6003760689407833,0.3940308987036395,0.627020316485306,0.4482206227968368,0.551466536579686,0.3403335473924405,0.5083174752079549,0.38814470564782644,0.4479210093530254,0.39907108951926945,0.334486810153443,0.35124198925345057,0.5229990405227476,0.45351673542461346,0.629934521296009,0.35138196407568817,0.15614996018011015,0.2238472270313279,0.3890738484893555,0.7739822054905865,0.38309814840772316,0.7793324471601231,0.3535909448292318,0.36053960573494326,0.7537743211707533,0.43761654377993825,0.35117198119662524,0.3245928654687828,0.2373827543887022,0.3670905440627623,0.36409621938343567,0.09185682493825863,0.8092357308944291,0.4096159525425127,0.2459013753109881,0.5871993869969194,0,0.34004456933424665,0.1582616856561042,0.25576046885388637,0.41958919483058565,0.4031642920154805,0.19455122956699664,0.23945523756627365,0.21823653243943267,0.2889033370966222,0.40527660743704563,0.4905913338485293,0.27054075810154904,0.75807654183157,0.45956701654088,0.5198602513554347,0.2411051484484361,0.5043084005527834,0.5963914461347181,0.4818588034848015,0.5855530191073391,0.47180897690442414,0.5550390986562652,0.3295039689256999,0.6102134203719313,0.689415478034015,0.3779886650700408,0.3817250309467085,0.1936320892227577,0.7434250233547604,0.29675204626730656,0.25858840754418183,0.4317187274040554,0.7934498739804936,0.7198986207342012,0.4351781712761714,0.732449963552125,0.7671131372018938,0.3368942526438671,0.5217384080926785,0.3918028329720844,0.18533459917852443,0.4162614392416569],[0.24590137531098805,0.10636396266910966,0.5297757966596691,0.4351057869340461,0.4098464200786938,0.465253833422583,0.12725617876467915,0.49891424182307337,0.3234896547283378,0.15880440462476367,0.40376117928093386,0.3231478345123941,0.5625658530830254,0.38752758350239014,0.11909443006606377,0.3581593362555809,0.06588670983076303,0.3388459362724956,0.5365597750914665,0.10376620830306622,0.35341704699789234,0.18109162220161487,0.23000267772114452,0.432745193545026,0.43904131872995356,0.42863751810835105,0.07684142694455366,0.4626072152844857,0.21799424721009622,0.05159628773764811,0.438491948348928,0.466677298471127,0.4362248392092944,0.42822524649164084,0.4912560543249459,0.4146107667704615,0.1046685190296944,0.03906393668098311,0.06481975317116549,0.3908696019795464,0.04152482286291271,0.03223817526775886,0.35247653572077553,0.47502843675080214,0.547758135961432,0.37807908323045886,0.35920309535498396,0.34004456933424665,0,0.4937089228031539,0.363555331924507,0.08988712628123856,0.5321841769114546,0.23888763071907448,0.5014147843955564,0.5019614990869053,0.3800665047759967,0.44625729921682317,0.19317791348864988,0.5542843160454501