"trial_id","rt","stimulus","response","trial_type","trial_index","plugin_version","time_elapsed","participant_number","success","raw_payload","placements","dissimilarity_vector","n_words","trial_category","distance_matrix","value"
"consent_form","2707","
    <div style=""max-width:800px; margin:0 auto; text-align:left; font-size: 16px; padding: 10px 0;"">
      <h1>Informed Consent Form</h1>
      <p>You are being invited to participate in a research study titled <strong>""Reproducibility of Psychological Science and Instruction.""</strong> This study is being done by Dr. Bria Long from UC San Diego and associated graduate students in the Experimental Methods course. You were selected to participate in this study because you are an adult in the U.S. and have been a represented population in previous psychology studies.</p>
      
      <p>The purpose of this study is to better understand how well previously published studies in the psychological field replicate online and with different populations. Your participation in this research should last approximately <strong>5-30 minutes</strong>. If you agree to take part in this study, you may be asked to view a set of stimuli, including pictures, sounds, written text, or videos and then giving some responses via key-presses, verbally, or with paper-and-pencil. We may also observe your choices or preferences among an array of stimuli. These stimuli will be taken directly from or closely adapted from studies that already exist in the published psychological literature. Stimuli will include, e.g., pictures of objects and human faces, audio and video clips, short text passages, etc. None of the stimuli will be disturbing, threatening, or offensive. The online and in-person experiments described in this protocol will take no more than 30 minutes. An example game you might play would be to click on an image on the screen that matches a word you hear being said out loud. Your total expected time commitment for this study is between 5-30 minutes, and is specified in the study description.</p>
      
      <p>Your participation in this study is completely voluntary and you can withdraw at any time. Choosing not to participate or withdrawing will result in no penalty or loss of benefits to which you are entitled. You are free to skip any question that you choose.</p>
      
      <p>We will not be asking for any personally identifying information, and we will handle responses as confidentially as possible. Your SONA or Prolific IDs will never be tied to your responses on this survey. However, we cannot guarantee the confidentiality of information transmitted over the Internet. To minimize this risk, data containing anything that might be personally identifying (e.g. Prolific IDs or IP addresses) will be encrypted on transfer and storage and will only be accessible to qualified lab personnel. We will be keeping data collected as part of this experiment indefinitely. This anonymized data (containing neither Prolific IDs nor IP addresses) may be shared with the scientific community or with other participants to be used as stimuli in future studies.</p>
      
      <p>If you have questions about this project or if you have a research-related problem, you may contact the researcher(s), <strong>Dr. Bria Long, <a href=""mailto:brlong@ucsd.edu"">brlong@ucsd.edu</a></strong>. If you have any questions concerning your rights as a research subject, you may contact the UC San Diego Office of IRB Administration at <a href=""mailto:irb@ucsd.edu"">irb@ucsd.edu</a> or 858-246-4777.</p>
      
      <h3 style=""margin-top: 25px;"">Consent Statement</h3>
      <p style=""font-weight: bold;"">By participating in this research you are indicating that you are at least 18 years old, have read this consent form, and agree to participate in this research study. Please keep this consent form for your records.</p>
    </div>
  ","0","html-button-response","0","2.1.0","2709","evfahdtpm7_fc532r","","","","","","","",""
"","19518","","{""participant_date"":""11/25/2025"",""participant_time"":""5:35pm""}","survey-html-form","1","2.1.0","22229","evfahdtpm7_fc532r","","","","","","","",""
"","19526","
    <div style=""display:flex; align-items:center; justify-content:center; height:100vh; font-family:sans-serif;"">
      <div style=""max-width:900px; margin:0 auto; text-align:center;"">
        <h1 style= ""font-size: 24px;"">Welcome! Thank you for participating in the study.</h1>
        <h2 style= ""font-size: 22px;"">The study will be in Madarin Chinese.</h2>
        <h2 style= ""font-size: 22px;"">Please use desktop computers or laptops for the study. Tablets and phones are not allowed.</h2>
        <p style=""font-size:16px; margin-top:30px;""><em>Press any key to continue.</em></p>
      </div>
    </div>
  "," ","html-keyboard-response","2","2.1.0","41758","evfahdtpm7_fc532r","","","","","","","",""
"","30761","
    <div style=""display:flex; align-items:center; justify-content:center; height:100vh; font-family:sans-serif;"">
      <div style=""max-width:900px; margin:0 auto; text-align:center;"">
        <p style=""font-size:18px; line-height:1.6;"">
          In this task, you will be presented with <strong>90 words</strong> arranged <strong>outside a circle</strong>.<br>
          Your job is to <strong>drag these words into the circle</strong> and <strong>rearrange them</strong> based on their <strong>meaning similarity</strong>.<br><br>
          Words that are <strong>similar in meaning</strong> should be placed <strong>closer together</strong>.<br>
          Words that are <strong>different in meaning</strong> should be placed <strong>farther apart</strong>.<br><br>
          You can place the words <strong>anywhere inside the circle</strong>. There is no single correct answer — 
          we are interested in <strong>your personal judgment</strong> of how these words relate to each other.<br><br>
          <strong>You must move all words into the circle before you can finish.</strong><br>
          After the initial arrangement, you will arrange words from specific categories.
        </p>
        <p style=""font-size:16px; margin-top:30px;""><em>Press any key to continue.</em></p>
      </div>
    </div>
  ","Enter","html-keyboard-response","3","2.1.0","72520","evfahdtpm7_fc532r","","","","","","","",""
"","1351","","","fullscreen","4","2.1.0","74876","evfahdtpm7_fc532r","true","{""placements"":[{""word"":""骄傲"",""x"":467,""y"":493.8,""cx"":486,""cy"":511.2,""angle_rad"":0.87,""angle_deg"":49.8},{""word"":""冰箱"",""x"":421,""y"":323.8,""cx"":440,""cy"":341.2,""angle_rad"":-0.097,""angle_deg"":354.4},{""word"":""兔子"",""x"":146,""y"":371.8,""cx"":165,""cy"":389.2,""angle_rad"":2.933,""angle_deg"":168},{""word"":""反感"",""x"":451,""y"":400.8,""cx"":470,""cy"":418.2,""angle_rad"":0.517,""angle_deg"":29.6},{""word"":""协议"",""x"":417,""y"":195.8,""cx"":436,""cy"":213.2,""angle_rad"":-1.01,""angle_deg"":302.2},{""word"":""嘴唇"",""x"":229,""y"":519.8,""cx"":248,""cy"":537.2,""angle_rad"":2.07,""angle_deg"":118.6},{""word"":""剪刀"",""x"":501,""y"":318.8,""cx"":520,""cy"":336.2,""angle_rad"":-0.081,""angle_deg"":355.4},{""word"":""长颈鹿"",""x"":83,""y"":381.8,""cx"":109,""cy"":399.2,""angle_rad"":2.94,""angle_deg"":168.5},{""word"":""制度"",""x"":415,""y"":295.8,""cx"":434,""cy"":313.2,""angle_rad"":-0.413,""angle_deg"":336.3},{""word"":""过失"",""x"":428,""y"":484.8,""cx"":447,""cy"":502.2,""angle_rad"":1.003,""angle_deg"":57.5},{""word"":""友情"",""x"":358,""y"":508.8,""cx"":377,""cy"":526.2,""angle_rad"":1.419,""angle_deg"":81.3},{""word"":""方法"",""x"":491,""y"":174.8,""cx"":510,""cy"":192.2,""angle_rad"":-0.778,""angle_deg"":315.4},{""word"":""蚂蚁"",""x"":102,""y"":337.8,""cx"":121,""cy"":355.2,""angle_rad"":3.119,""angle_deg"":178.7},{""word"":""沮丧"",""x"":431,""y"":424.8,""cx"":450,""cy"":442.2,""angle_rad"":0.745,""angle_deg"":42.7},{""word"":""沙发"",""x"":542,""y"":385.8,""cx"":561,""cy"":403.2,""angle_rad"":0.247,""angle_deg"":14.2},{""word"":""暴力"",""x"":438,""y"":510.8,""cx"":457,""cy"":528.2,""angle_rad"":1.03,""angle_deg"":59},{""word"":""筷子"",""x"":459,""y"":360.8,""cx"":478,""cy"":378.2,""angle_rad"":0.217,""angle_deg"":12.4},{""word"":""概念"",""x"":545,""y"":190.8,""cx"":564,""cy"":208.2,""angle_rad"":-0.585,""angle_deg"":326.5},{""word"":""麻雀"",""x"":126,""y"":323.8,""cx"":145,""cy"":341.2,""angle_rad"":-3.099,""angle_deg"":182.5},{""word"":""椅子"",""x"":504,""y"":410.8,""cx"":523,""cy"":428.2,""angle_rad"":0.425,""angle_deg"":24.3},{""word"":""买卖"",""x"":466,""y"":260.8,""cx"":485,""cy"":278.2,""angle_rad"":-0.489,""angle_deg"":332},{""word"":""魔力"",""x"":501,""y"":208.8,""cx"":520,""cy"":226.2,""angle_rad"":-0.629,""angle_deg"":323.9},{""word"":""结果"",""x"":332,""y"":207.8,""cx"":351,""cy"":225.2,""angle_rad"":-1.563,""angle_deg"":270.5},{""word"":""敌意"",""x"":311,""y"":588.8,""cx"":330,""cy"":606.2,""angle_rad"":1.649,""angle_deg"":94.5},{""word"":""纠纷"",""x"":443,""y"":611.8,""cx"":462,""cy"":629.2,""angle_rad"":1.189,""angle_deg"":68.1},{""word"":""关系"",""x"":322,""y"":605.8,""cx"":341,""cy"":623.2,""angle_rad"":1.604,""angle_deg"":91.9},{""word"":""铅笔"",""x"":392,""y"":342.8,""cx"":411,""cy"":360.2,""angle_rad"":0.166,""angle_deg"":9.5},{""word"":""愤怒"",""x"":468,""y"":540.8,""cx"":487,""cy"":558.2,""angle_rad"":0.989,""angle_deg"":56.7},{""word"":""团队"",""x"":319,""y"":382.8,""cx"":338,""cy"":400.2,""angle_rad"":1.805,""angle_deg"":103.4},{""word"":""洗衣机"",""x"":366,""y"":319.8,""cx"":392,""cy"":337.2,""angle_rad"":-0.296,""angle_deg"":343.1},{""word"":""大腿"",""x"":179,""y"":500.8,""cx"":198,""cy"":518.2,""angle_rad"":2.306,""angle_deg"":132.1},{""word"":""慈善"",""x"":382,""y"":237.8,""cx"":401,""cy"":255.2,""angle_rad"":-1.077,""angle_deg"":298.3},{""word"":""手指"",""x"":202,""y"":563.8,""cx"":221,""cy"":581.2,""angle_rad"":2.08,""angle_deg"":119.2},{""word"":""性质"",""x"":425,""y"":138.8,""cx"":444,""cy"":156.2,""angle_rad"":-1.119,""angle_deg"":295.9},{""word"":""猫"",""x"":158,""y"":339.8,""cx"":170,""cy"":357.2,""angle_rad"":3.102,""angle_deg"":177.7},{""word"":""眼睛"",""x"":174,""y"":604.8,""cx"":193,""cy"":622.2,""angle_rad"":2.094,""angle_deg"":120},{""word"":""床"",""x"":430,""y"":360.8,""cx"":442,""cy"":378.2,""angle_rad"":0.297,""angle_deg"":17},{""word"":""鼠标"",""x"":335,""y"":330.8,""cx"":354,""cy"":348.2,""angle_rad"":-0.421,""angle_deg"":335.9},{""word"":""微波炉"",""x"":547,""y"":349.8,""cx"":573,""cy"":367.2,""angle_rad"":0.077,""angle_deg"":4.4},{""word"":""原因"",""x"":316,""y"":303.8,""cx"":335,""cy"":321.2,""angle_rad"":-2.051,""angle_deg"":242.5},{""word"":""锤子"",""x"":414,""y"":276.8,""cx"":433,""cy"":294.2,""angle_rad"":-0.592,""angle_deg"":326.1},{""word"":""勺子"",""x"":380,""y"":304.8,""cx"":399,""cy"":322.2,""angle_rad"":-0.516,""angle_deg"":330.4},{""word"":""缘分"",""x"":443,""y"":565.8,""cx"":462,""cy"":583.2,""angle_rad"":1.123,""angle_deg"":64.3},{""word"":""胳膊"",""x"":168,""y"":465.8,""cx"":187,""cy"":483.2,""angle_rad"":2.456,""angle_deg"":140.7},{""word"":""老鼠"",""x"":59,""y"":360.8,""cx"":78,""cy"":378.2,""angle_rad"":3.038,""angle_deg"":174.1},{""word"":""兴奋"",""x"":324,""y"":453.8,""cx"":343,""cy"":471.2,""angle_rad"":1.628,""angle_deg"":93.3},{""word"":""耳朵"",""x"":181,""y"":546.8,""cx"":200,""cy"":564.2,""angle_rad"":2.182,""angle_deg"":125},{""word"":""社会"",""x"":346,""y"":275.8,""cx"":365,""cy"":293.2,""angle_rad"":-1.312,""angle_deg"":284.8},{""word"":""牙刷"",""x"":467,""y"":335.8,""cx"":486,""cy"":353.2,""angle_rad"":0.024,""angle_deg"":1.3},{""word"":""过程"",""x"":391,""y"":130.8,""cx"":410,""cy"":148.2,""angle_rad"":-1.282,""angle_deg"":286.6},{""word"":""光彩"",""x"":460,""y"":164.8,""cx"":479,""cy"":182.2,""angle_rad"":-0.915,""angle_deg"":307.6},{""word"":""空调"",""x"":556,""y"":317.8,""cx"":575,""cy"":335.2,""angle_rad"":-0.066,""angle_deg"":356.2},{""word"":""乌龟"",""x"":88,""y"":310.8,""cx"":107,""cy"":328.2,""angle_rad"":-3.052,""angle_deg"":185.1},{""word"":""地位"",""x"":342,""y"":241.8,""cx"":361,""cy"":259.2,""angle_rad"":-1.45,""angle_deg"":276.9},{""word"":""创伤"",""x"":393,""y"":582.8,""cx"":412,""cy"":600.2,""angle_rad"":1.328,""angle_deg"":76.1},{""word"":""死亡"",""x"":338,""y"":563.8,""cx"":357,""cy"":581.2,""angle_rad"":1.54,""angle_deg"":88.3},{""word"":""快乐"",""x"":424,""y"":393.8,""cx"":443,""cy"":411.2,""angle_rad"":0.582,""angle_deg"":33.3},{""word"":""身份"",""x"":326,""y"":523.8,""cx"":345,""cy"":541.2,""angle_rad"":1.597,""angle_deg"":91.5},{""word"":""婚姻"",""x"":375,""y"":537.8,""cx"":394,""cy"":555.2,""angle_rad"":1.36,""angle_deg"":77.9},{""word"":""错误"",""x"":350,""y"":405.8,""cx"":369,""cy"":423.2,""angle_rad"":1.317,""angle_deg"":75.4},{""word"":""脚踝"",""x"":149,""y"":533.8,""cx"":168,""cy"":551.2,""angle_rad"":2.306,""angle_deg"":132.1},{""word"":""老虎"",""x"":104,""y"":278.8,""cx"":123,""cy"":296.2,""angle_rad"":-2.909,""angle_deg"":193.3},{""word"":""冷漠"",""x"":319,""y"":434.8,""cx"":338,""cy"":452.2,""angle_rad"":1.688,""angle_deg"":96.7},{""word"":""疾病"",""x"":352,""y"":611.8,""cx"":371,""cy"":629.2,""angle_rad"":1.496,""angle_deg"":85.7},{""word"":""扫帚"",""x"":481,""y"":316.8,""cx"":500,""cy"":334.2,""angle_rad"":-0.105,""angle_deg"":354},{""word"":""难过"",""x"":395,""y"":406.8,""cx"":414,""cy"":424.2,""angle_rad"":0.859,""angle_deg"":49.2},{""word"":""钥匙"",""x"":445,""y"":301.8,""cx"":464,""cy"":319.2,""angle_rad"":-0.264,""angle_deg"":344.9},{""word"":""天堂"",""x"":468,""y"":204.8,""cx"":487,""cy"":222.2,""angle_rad"":-0.751,""angle_deg"":317},{""word"":""义务"",""x"":358,""y"":441.8,""cx"":377,""cy"":459.2,""angle_rad"":1.328,""angle_deg"":76.1},{""word"":""数据"",""x"":462,""y"":92.8,""cx"":481,""cy"":110.2,""angle_rad"":-1.071,""angle_deg"":298.6},{""word"":""爱心"",""x"":391,""y"":463.8,""cx"":410,""cy"":481.2,""angle_rad"":1.142,""angle_deg"":65.4},{""word"":""内容"",""x"":408,""y"":90.8,""cx"":427,""cy"":108.2,""angle_rad"":-1.262,""angle_deg"":287.7},{""word"":""现象"",""x"":518,""y"":159.8,""cx"":537,""cy"":177.2,""angle_rad"":-0.746,""angle_deg"":317.3},{""word"":""柜子"",""x"":578,""y"":407.8,""cx"":597,""cy"":425.2,""angle_rad"":0.296,""angle_deg"":16.9},{""word"":""奇迹"",""x"":484,""y"":239.8,""cx"":503,""cy"":257.2,""angle_rad"":-0.545,""angle_deg"":328.8},{""word"":""恐惧"",""x"":403,""y"":533.8,""cx"":422,""cy"":551.2,""angle_rad"":1.227,""angle_deg"":70.3},{""word"":""膝盖"",""x"":213,""y"":493.8,""cx"":232,""cy"":511.2,""angle_rad"":2.203,""angle_deg"":126.2},{""word"":""舒心"",""x"":459,""y"":440.8,""cx"":478,""cy"":458.2,""angle_rad"":0.702,""angle_deg"":40.2},{""word"":""债务"",""x"":309,""y"":403.8,""cx"":328,""cy"":421.2,""angle_rad"":1.87,""angle_deg"":107.2},{""word"":""大象"",""x"":142,""y"":277.8,""cx"":161,""cy"":295.2,""angle_rad"":-2.859,""angle_deg"":196.2},{""word"":""作用"",""x"":370,""y"":174.8,""cx"":389,""cy"":192.2,""angle_rad"":-1.328,""angle_deg"":283.9},{""word"":""纪律"",""x"":408,""y"":240.8,""cx"":427,""cy"":258.2,""angle_rad"":-0.873,""angle_deg"":310},{""word"":""电视"",""x"":520,""y"":356.8,""cx"":539,""cy"":374.2,""angle_rad"":0.127,""angle_deg"":7.3},{""word"":""肩膀"",""x"":254,""y"":546.8,""cx"":273,""cy"":564.2,""angle_rad"":1.916,""angle_deg"":109.8},{""word"":""鼻子"",""x"":244,""y"":585.8,""cx"":263,""cy"":603.2,""angle_rad"":1.902,""angle_deg"":109},{""word"":""斧头"",""x"":499,""y"":362.8,""cx"":518,""cy"":380.2,""angle_rad"":0.178,""angle_deg"":10.2},{""word"":""风景"",""x"":494,""y"":124.8,""cx"":513,""cy"":142.2,""angle_rad"":-0.906,""angle_deg"":308.1},{""word"":""熊猫"",""x"":162,""y"":295.8,""cx"":181,""cy"":313.2,""angle_rad"":-2.927,""angle_deg"":192.3},{""word"":""骗局"",""x"":434,""y"":205.8,""cx"":453,""cy"":223.2,""angle_rad"":-0.889,""angle_deg"":309.1},{""word"":""桌子"",""x"":504,""y"":280.8,""cx"":523,""cy"":298.2,""angle_rad"":-0.291,""angle_deg"":343.3}],""n_words"":90,""words"":[""骄傲"",""冰箱"",""兔子"",""反感"",""协议"",""嘴唇"",""剪刀"",""长颈鹿"",""制度"",""过失"",""友情"",""方法"",""蚂蚁"",""沮丧"",""沙发"",""暴力"",""筷子"",""概念"",""麻雀"",""椅子"",""买卖"",""魔力"",""结果"",""敌意"",""纠纷"",""关系"",""铅笔"",""愤怒"",""团队"",""洗衣机"",""大腿"",""慈善"",""手指"",""性质"",""猫"",""眼睛"",""床"",""鼠标"",""微波炉"",""原因"",""锤子"",""勺子"",""缘分"",""胳膊"",""老鼠"",""兴奋"",""耳朵"",""社会"",""牙刷"",""过程"",""光彩"",""空调"",""乌龟"",""地位"",""创伤"",""死亡"",""快乐"",""身份"",""婚姻"",""错误"",""脚踝"",""老虎"",""冷漠"",""疾病"",""扫帚"",""难过"",""钥匙"",""天堂"",""义务"",""数据"",""爱心"",""内容"",""现象"",""柜子"",""奇迹"",""恐惧"",""膝盖"",""舒心"",""债务"",""大象"",""作用"",""纪律"",""电视"",""肩膀"",""鼻子"",""斧头"",""风景"",""熊猫"",""骗局"",""桌子""],""distance_matrix"":[[0,0.2794950746323997,0.5725266564988235,0.1363020950362209,0.5002944335525964,0.3903789067270136,0.28327630725519193,0.6599040455545668,0.32959384552957094,0.04111490711103199,0.16373468300859212,0.5313618228949349,0.6663057421850177,0.10733047728557382,0.20132583279565217,0.029887645876886852,0.20439603097062733,0.5190599970231352,0.6384311516603305,0.13018397181442565,0.379144129935069,0.4737663111355649,0.5249847874674866,0.2909444791338657,0.1819320507058916,0.2919403127883005,0.26633405468488486,0.05335134065537928,0.295060974162577,0.31742528851238044,0.47563033686457556,0.4435004689202058,0.45111478965983787,0.5971790450711932,0.5867605908737582,0.5198348430458439,0.2163928874395795,0.3384058009501783,0.26570482565581544,0.3961231518618042,0.36228701042920636,0.3354584804369306,0.10394616458168042,0.4970410119281777,0.7226931943175577,0.23110643081685672,0.480507519247444,0.40774330565276967,0.24776631342015293,0.6206419684223976,0.5474295923562927,0.31647183423933756,0.7082203871968197,0.4637431158254307,0.1737508880202035,0.22809265458339442,0.1616779655391769,0.22351670362287104,0.14963933427142767,0.22744736513882308,0.5324203524183554,0.7100161848696791,0.2500902475779478,0.2596241989540124,0.2820160715822002,0.1688178290677496,0.30952316729796814,0.47723603126034536,0.18254938187887096,0.673472860663806,0.11412700421705992,0.6844466063401411,0.5628385739944827,0.21696739170794888,0.4169205055731631,0.10320553932479638,0.41592510717099407,0.06489427881611491,0.28951714679523616,0.6545564177100056,0.5550443748450659,0.4260643387055341,0.22831335379228035,0.3554840628359359,0.39356043117922646,0.20721862222700144,0.6190933115196039,0.6079643007880199,0.47878226826100534,0.34969459524698066],[0.2794950746323997,0,0.45999262820451653,0.11575774321468553,0.19532614203928572,0.4516098224551228,0.11141072269052316,0.5596363308617428,0.02116470535399644,0.25328770593105443,0.31333572376896657,0.2593689436582516,0.5303204906153008,0.14878707030675822,0.20915907369742315,0.29991504816644726,0.06390870939512526,0.2895219633596742,0.48774292533541574,0.18162634856849705,0.10661965040548144,0.2163928874395795,0.22711213052174797,0.4735954014497909,0.4769510816866176,0.4945268761624841,0.03173458824281886,0.35992740433537407,0.1774104781160825,0.05537579950549276,0.4961887246274823,0.1364134312385597,0.5401200516912249,0.2951367125161872,0.4447812588370014,0.6263436900436871,0.03591078207348132,0.1221454120484876,0.2083847965735816,0.1582354039922606,0.05424079625453159,0.0501595764248702,0.3966533078119043,0.4792050738155636,0.6084073192415657,0.25512412459320766,0.5448662046049706,0.12698088657100443,0.05427765073093685,0.3131339980490332,0.2577738002158516,0.20771170774274486,0.5547501007721966,0.1704552272593231,0.4273268285267697,0.4158319977025062,0.09373330715742387,0.3588490317030786,0.35442120223519064,0.16100090337347953,0.5729320401398911,0.5318462044701813,0.23506355315215516,0.4897578524862861,0.07681705278193926,0.12335859897669645,0.028034691103695147,0.19512087631687047,0.20531448373196712,0.3819610862694579,0.22180366528240786,0.3797751339528548,0.30476287821258485,0.2829027062464275,0.15492864603687606,0.34020112986318474,0.44155807660878355,0.18648690016329947,0.21209773876493865,0.46631439468268027,0.2468668519286603,0.11816476145142732,0.15379911428535034,0.45901592381651546,0.5248518442731568,0.12376085349490042,0.34229779276478234,0.42732682852676956,0.17895072860412253,0.13474480870874408],[0.5725266564988235,0.45999262820451653,0,0.5076690180767175,0.5370278053028675,0.2682343955971662,0.5997341147859605,0.07064929892007087,0.46064477089995065,0.5031533300274241,0.41314758266750773,0.6669078422002103,0.06840701435997701,0.47878528954902466,0.665093344383293,0.537482968823842,0.5196111731933866,0.7384653789948988,0.062090978653599194,0.6018072005398155,0.5642987686724766,0.6552585465961338,0.40537280176598045,0.44851628302997015,0.6398731149925955,0.4838897649057526,0.4048957325717969,0.6080028363630124,0.27465307972652003,0.3789298175212918,0.20424479641111978,0.44638465480650275,0.321335785686146,0.6077258100571368,0.02773801045178898,0.3820767965133763,0.4565955822867253,0.30976780395990394,0.6867180560027183,0.29172513012174206,0.46906956691454593,0.3973627552197678,0.5923979314258142,0.14010990998694403,0.12461214679265413,0.31429341937567606,0.2836151109460782,0.3596038119705356,0.5368109320744381,0.5729881094588127,0.6297876115379041,0.6953854181235938,0.11844596872117168,0.38298268969234583,0.5400364798079763,0.4466298588813728,0.45948724690907594,0.3836821809405148,0.46643827314180847,0.3332714271646429,0.2548215827139717,0.14975094588425356,0.2935091751419525,0.5250263256734963,0.5656650897717911,0.4114545490706755,0.5089111026536602,0.606382329905519,0.3620752288940504,0.7093993720357127,0.4294199052007188,0.6439798937113138,0.7210075337407889,0.7303424725742862,0.6066116701118554,0.5031533300274242,0.21481231286090124,0.5324367480179046,0.26197469521020245,0.13580946043927092,0.4935295789229716,0.48410807675942935,0.6266502889413109,0.3312201847333445,0.3832953750007727,0.589539799391407,0.7185180941319873,0.10704884761669793,0.5532817690627433,0.6180390559975221],[0.1363020950362209,0.11575774321468553,0.5076690180767175,0,0.3349993620393176,0.4122166965718699,0.13923672887828478,0.6042273174000916,0.16543857064630366,0.12355985881821197,0.22065715794324697,0.3730315244629104,0.5922127376626326,0.025728388888283615,0.1325564820182452,0.16502783946472951,0.042458712931707186,0.3740224713916274,0.5560521907998307,0.06548068550316907,0.21764010219348878,0.3185394958747348,0.3681710470388188,0.3815950781098911,0.34086953910371276,0.39527424760071095,0.1159272182065411,0.2180378810104099,0.20436316222997414,0.16797844962210365,0.4786342031201293,0.2810526894859501,0.4923097040312593,0.43219257121830473,0.5072543505578264,0.5735968899565608,0.05653161821332421,0.20832662395475018,0.17233091633051764,0.26219078861528583,0.19767333783048915,0.18015715959717216,0.2603674074516266,0.47963054416936884,0.6612189201008893,0.2120595559313784,0.5086686220361775,0.25695947965667537,0.0882611671790557,0.4554885512689638,0.38469582578636274,0.2054519413132612,0.6261072066695449,0.3086791733094173,0.30560299560597676,0.31842470329340256,0.019863242533772796,0.2781893643630737,0.24543388037016733,0.14813868584375875,0.5490322404422913,0.6153018239256713,0.20977026239184465,0.37926439636799014,0.12724622714477843,0.06965902010053165,0.14473691207310155,0.3156181476553023,0.14903714590599315,0.5108583939208026,0.12339887220859336,0.5192167329174019,0.4091636537125136,0.1938026975352146,0.25888440088753434,0.21868290905357804,0.4185962918446785,0.042458712931707186,0.21979535176748338,0.5535715180047263,0.39153695140951883,0.2612144580164228,0.1143519295431654,0.4005175519214957,0.4573027595929187,0.0782428260328315,0.4602937251480607,0.5096094065788158,0.31387307878534776,0.20079234231742657],[0.5002944335525964,0.19532614203928572,0.5370278053028675,0.3349993620393176,0,0.6271625274608297,0.23190736101261658,0.6299738859264332,0.14620540510844343,0.47759956376546525,0.5289281076485803,0.10574576953199118,0.5762489860100433,0.37288267167443573,0.3693859494003703,0.524000805859473,0.2692443313884948,0.1953876851394089,0.5278684497490294,0.37727544765299326,0.1135900396209879,0.11989556400545084,0.1213719977381754,0.6840056492346076,0.7011149034287674,0.7082099821182842,0.23219532959606318,0.5818929206689625,0.34081976144787757,0.20147898275549855,0.6486687529911009,0.06677095652557614,0.7175652041592433,0.07182783826941555,0.5008390715223214,0.8043395614861039,0.26021891854114054,0.24768315278845968,0.3320539779859184,0.23001887731828285,0.11298622836632133,0.1726354943427227,0.6207151721466361,0.6143677490658049,0.6614967030589453,0.45139590313181555,0.711888390953999,0.15836646040072774,0.23140706832670166,0.09363326365860035,0.06385915632340369,0.2949662763204642,0.5814909743781486,0.1251206656775392,0.6501974082806018,0.6302997394673906,0.31804915487759333,0.5672495990480432,0.5745711866315972,0.35712054966808865,0.7265914745756977,0.5382218305442007,0.42347793672904416,0.7085345514105339,0.21077691727494466,0.3426075562943357,0.16304889508707132,0.06171967966643854,0.4141319099182803,0.16789275647296892,0.4426522664746119,0.15560304761753907,0.15882443767593002,0.43730370981347116,0.11141072269052316,0.5635717100995614,0.6035922356991874,0.4064205140663229,0.3815352906887167,0.4736686555735712,0.06117687919549652,0.05139043137668389,0.30579551198928767,0.6488973657951885,0.7183456782552573,0.29689266714179685,0.15446930589701885,0.4507951426042391,0.005552984470150202,0.1840596841706373],[0.3903789067270136,0.4516098224551228,0.2682343955971662,0.4122166965718699,0.6271625274608297,0,0.5634292988458907,0.3141011998198549,0.4810101194487885,0.32493446813999916,0.19778836872977815,0.7298351891567428,0.35974985650897634,0.3620163803330376,0.5674039599326648,0.33743995075193806,0.4607826128912367,0.7700684042649372,0.3588490317030786,0.48916900094682514,0.5859578093231295,0.6947264597938058,0.546531972695834,0.15872639374774017,0.37903134795956434,0.19288499288438196,0.39248803207403815,0.3912632542537229,0.25813201078540954,0.4026944237473181,0.06469799432244372,0.5329911839392734,0.06143172260660009,0.7215166956537965,0.31463289329869215,0.1483464267913882,0.4103769416336267,0.35058077037397783,0.613470523682964,0.37889972957508367,0.5059740079784425,0.43121353755566844,0.3544212022351905,0.1137083451904067,0.37873420618293446,0.17362978240339552,0.06747324986827855,0.445004636683861,0.49795888582927467,0.7091250675479072,0.7129002714192118,0.6442716254414136,0.41262333220369973,0.496655902516003,0.27874322332129886,0.17690443557268365,0.37767929702649083,0.141059818177899,0.2286827503304981,0.26220659403184243,0.11326688802118579,0.4465588917565774,0.18784955558116215,0.24005926345310383,0.5378295147543496,0.3227561254151992,0.5085658913908083,0.6636197178466723,0.2350635531521552,0.8230690111564314,0.2712489022795035,0.7852547376940079,0.7796566078258808,0.6130405570951842,0.6343825299840554,0.27677775129921417,0.024480644229912172,0.3969883718403179,0.21783285636042252,0.4214662410555759,0.6238481174911773,0.5516512187860128,0.5552544798647137,0.03546012414107689,0.0895623188823236,0.518096205695434,0.8041922706721543,0.38055128410111705,0.6278659112394743,0.6092083044301324],[0.28327630725519193,0.11141072269052316,0.5997341147859605,0.13923672887828478,0.23190736101261658,0.5634292988458907,0,0.6993434990966483,0.1269415384570587,0.28865380517879197,0.38754890001161624,0.22385063770892502,0.6707069181433063,0.19351330496678107,0.10859625217768042,0.32496480910324027,0.07504791082709214,0.20809379074589154,0.6279336393363566,0.13224279868565159,0.08966579466332188,0.16368691654473239,0.32517712306756186,0.549316160127023,0.49419856468631296,0.5634940354773247,0.16650871107630733,0.36414498817257457,0.3089425803950573,0.19522353266744583,0.6188991731411615,0.22315799176881906,0.6481184079146947,0.31325504774889923,0.5851864516016754,0.7319671359020997,0.1261821426064843,0.26253830983865345,0.07855709777822419,0.2961244242696141,0.14022780688700773,0.1843690901969177,0.4154317499038791,0.6086118705622158,0.7487236056418495,0.36093591606026776,0.6592601551540521,0.2527654835017436,0.03759086532294784,0.35254401971832056,0.25015620439678404,0.06736186377068291,0.6945738179752198,0.28045834825422683,0.4706410775261532,0.48646173889980454,0.15928944913459017,0.4431399253687265,0.4135776286130481,0.2762655603074613,0.6935044222876425,0.6699325121203463,0.34905396434486446,0.5467904814211698,0.006212777075928461,0.21232670889627234,0.07351789340325765,0.17889169921872133,0.301404263242238,0.37272994485329236,0.28981082405808667,0.40232822510528365,0.25110535591244587,0.17715017018633314,0.11255335765464188,0.38488861952994863,0.5613123976014087,0.19701586497664297,0.3388064471856714,0.6039365193784362,0.3120021286937082,0.18361998691276948,0.045424500611307164,0.5598135321409837,0.6201529448569179,0.04815732539807659,0.3110470031703332,0.5661808401934557,0.20111925201223776,0.03777493174169356],[0.6599040455545668,0.5596363308617428,0.07064929892007087,0.6042273174000916,0.6299738859264332,0.3141011998198549,0.6993434990966483,0,0.5598864818751996,0.5899439546967461,0.4904907633762494,0.7614843670291711,0.050892683767320056,0.5730492700330785,0.7627836214025969,0.6211141055558713,0.618411202822621,0.8353819283026053,0.09058021844137128,0.6979667422023832,0.6628905969957758,0.7521130772264566,0.4931036815295073,0.5014120749343033,0.7090086651452767,0.5358964394811672,0.5043973014521055,0.689321984226205,0.37213757918575413,0.47848004862247606,0.23130100061952966,0.5413022226899091,0.34533471737802324,0.6959316235162734,0.10073384466312757,0.3884171913772511,0.5554645093545545,0.40935968534819256,0.7857030353612633,0.38979318864599594,0.5675994263854507,0.4965858523058489,0.6682975196758216,0.1717967931014745,0.03659265867143795,0.3998562542443795,0.3010697756783316,0.45634909117603456,0.6362761828056821,0.6575148355460098,0.7223584065914403,0.794938070569115,0.09542173916818253,0.47596768278407,0.6079185367644443,0.509842922497529,0.5564349156018882,0.45345769680274683,0.5401200516912249,0.4283712098998538,0.25661054174233955,0.15308433281700837,0.38273684178932155,0.5816869562440056,0.665301081834659,0.5070511894736877,0.6084362010543767,0.7021249077516978,0.45206926742846326,0.7961530469764736,0.5174677068376246,0.72605728943342,0.8155638596704359,0.8270245430126804,0.7046114217625933,0.5805025686488922,0.26239619216072907,0.6255753926357778,0.35654797253868004,0.174679482869236,0.5809454114881669,0.5803313840820788,0.7254881595419678,0.3785083841144296,0.4187299467223178,0.6882041168018599,0.8097254112712035,0.16747153889450814,0.6478600671283375,0.7174583389656258],[0.32959384552957094,0.02116470535399644,0.46064477089995065,0.16543857064630366,0.14620540510844343,0.4810101194487885,0.1269415384570587,0.5598864818751996,0,0.3028498134044954,0.35723575765423765,0.22129543589205827,0.5241866490588158,0.19869978628564297,0.24366161591649235,0.34975940884205986,0.10849586534730404,0.2637199404868909,0.47960339712158234,0.22572462414982622,0.07935294893539027,0.18528746850751374,0.18289719782903674,0.5156116629342891,0.5266963510291983,0.5379269426297171,0.06266184589194947,0.410087036607491,0.19794390596316946,0.05573868648828462,0.5185783134071105,0.08789424924205205,0.5706568269425769,0.24657194629269655,0.4398203865154515,0.6574254415836831,0.08572159355048005,0.12396158405209194,0.2322129500121588,0.14498399135823134,0.0043324575839040055,0.03430733082189995,0.4464879140397456,0.4962354611157117,0.6049029071587919,0.2903877616894584,0.5720980295681302,0.09684397158418413,0.08592201877145361,0.26306932204216776,0.21363277100947017,0.22097650064030122,0.5443981731953742,0.13005863019871072,0.47520453365940235,0.45944013506629416,0.14338944526110967,0.3997310291286801,0.40065683071882763,0.1948126247461362,0.5962252565202627,0.5165826553495938,0.2669101045915479,0.5354209701107091,0.09232519106889836,0.16856949583378006,0.024595276041753794,0.15547002790489817,0.24554566404690012,0.3359968913524278,0.2682705238153181,0.33030333923397304,0.26984044071678,0.3174297170523283,0.1266658231588838,0.38842821735364697,0.466472334288199,0.23643114101045462,0.2360783304928118,0.45024485094998135,0.19713801469860312,0.06812308875485995,0.1837137690966508,0.49334457651098357,0.5607195522260174,0.15921610265383337,0.30095820447166,0.4141734530694228,0.13212858060757715,0.1291008457033491],[0.04111490711103199,0.25328770593105443,0.5031533300274241,0.12355985881821197,0.47759956376546525,0.32493446813999916,0.28865380517879197,0.5899439546967461,0.3028498134044954,0,0.10062736888816698,0.5251176987659741,0.597414203911727,0.07623550351747702,0.23548153297495708,0.01980040227990696,0.19489486666195982,0.5252727216653534,0.5704828308706629,0.15681245341835692,0.36898139402801955,0.4710861057100379,0.4845264973531602,0.245210176306091,0.1950113243558118,0.25278181760265483,0.22760883963082518,0.09155135206841619,0.23249471519054993,0.27566188022765487,0.4080663577914449,0.41110261167232953,0.39036793203854264,0.577100065715886,0.5186707622932624,0.4630794909235341,0.18838658028443278,0.28613235793411096,0.29447340063876026,0.34384403683267445,0.33617338445934,0.29732077673444557,0.11530129288326163,0.4276494647736999,0.6528845578788318,0.161097774184329,0.4170856161665504,0.3642698415999258,0.24079381798775482,0.5944683433005351,0.5343299526364516,0.3395731351441302,0.6400267715539906,0.4225275761270299,0.15328643744025933,0.18077240060658153,0.13055940587294063,0.16228848058360948,0.10229725368440612,0.16547012942029404,0.4671963538605183,0.6435397777048898,0.18106473917116486,0.2302556900872432,0.2795796054139997,0.11935879637297815,0.29293783146112035,0.466447562777601,0.11490737440621296,0.6602313299387109,0.04552750347754373,0.6620452738638782,0.561717685830566,0.2663496383739903,0.4112280869755634,0.067361863770683,0.347940415537277,0.06528562186740423,0.22315799176881906,0.5894281762489006,0.5234401240955856,0.3998419446533289,0.2471225524446293,0.2945635012873205,0.3386729469496768,0.21826135037370126,0.6121103665469754,0.5425839511928569,0.45982945658908925,0.3523348734604214],[0.16373468300859212,0.31333572376896657,0.41314758266750773,0.22065715794324697,0.5289281076485803,0.19778836872977815,0.38754890001161624,0.4904907633762494,0.35723575765423765,0.10062736888816698,0,0.6007361869041946,0.5102669792028043,0.16594289793983794,0.35869077644143293,0.11118107800987237,0.28486403820436484,0.6172039096727242,0.4907741933654439,0.27901728894153593,0.4448201147230247,0.55314738198467,0.5002161682394626,0.13353166045970435,0.20492786113185996,0.15223980429658265,0.2678160206454877,0.17167450817677685,0.20204409088253122,0.30310860510339,0.28486403820436484,0.44756112758193345,0.26074888664883517,0.6296571881210197,0.43909335259986915,0.33453966380837424,0.2541505181537574,0.28539149998358154,0.41309206239639523,0.3375529736831452,0.3890598870445958,0.3304143378906344,0.1502737338925414,0.3122359964670814,0.5553988832476114,0.08426806278131693,0.28811241832185946,0.37968129624929925,0.3291743280311879,0.6356486423123525,0.5995047059178467,0.45290089495531466,0.5574926605806514,0.4395356022464172,0.11439473245966765,0.07351789340325765,0.20326267409555604,0.03291051296132799,0.029887645876886804,0.15196872277411042,0.33971047035965124,0.5712270777782943,0.1175274543098902,0.1517311928945332,0.37041667115432714,0.16106548939999085,0.36432055198376406,0.537296070935621,0.08836579017716821,0.7221194729256644,0.06875291457335331,0.708415975347409,0.6435146846970283,0.3950391442502065,0.49132879654073697,0.06117687919549652,0.22635023543865584,0.1842827894822541,0.17397020776863856,0.5249737100865199,0.5564349156018883,0.44854840990073236,0.3601245846843612,0.16495666307629742,0.21197680570310468,0.32653897119362096,0.6845799153085783,0.4780324329618024,0.5181971471088458,0.44524731935424244],[0.5313618228949349,0.2593689436582516,0.6669078422002103,0.3730315244629104,0.10574576953199118,0.7298351891567428,0.22385063770892502,0.7614843670291711,0.22129543589205827,0.5251176987659741,0.6007361869041946,0,0.7098002551281851,0.42135383819334205,0.35124707237490055,0.5668377745163361,0.3015992247005482,0.06965902010053165,0.661578905382282,0.3850220395300982,0.12788316929561896,0.03308374489427617,0.255453312975129,0.7617676700373414,0.7410815962408082,0.7819319026760408,0.31257751517828963,0.613375000423571,0.44378286490331004,0.2984705976260749,0.7614261415063017,0.19153258189891742,0.8198652903748469,0.10269394327607753,0.632993498486956,0.9067703268358503,0.31790324416648036,0.3574501913483454,0.2968032106328679,0.35182761963404435,0.19486745604710565,0.27043536330641216,0.6610433036020298,0.7325414964878569,0.794878485090185,0.5405754376049018,0.8192180298759392,0.28053765968831756,0.2561374530856546,0.1623766832529791,0.02806158557617891,0.24615408688046728,0.7160347505631369,0.2571739992024384,0.7060070415426186,0.7032089514009102,0.3721681743054549,0.6472115146122441,0.6385322824125939,0.44505965564445005,0.8395233988247823,0.6729463343777283,0.5170717182742595,0.774267776618841,0.2203558645946517,0.41080620849360394,0.20760798566190541,0.03722119751195865,0.49350902633416255,0.12335859897669645,0.5066818686391341,0.17785595815820968,0.025108113666055344,0.40666356129212555,0.08552081754656321,0.6184657031840125,0.7121947909441452,0.44030445006323776,0.4833899893661528,0.6084000985838784,0.18295511166201625,0.15675464792746557,0.2938277354633853,0.7436274031043245,0.8109409156743074,0.3006139555066483,0.058745177690433845,0.5850390595344425,0.08466018832900847,0.1580714543648289],[0.6663057421850177,0.5303204906153008,0.06840701435997701,0.5922127376626326,0.5762489860100433,0.35974985650897634,0.6707069181433063,0.050892683767320056,0.5241866490588158,0.597414203911727,0.5102669792028043,0.7098002551281851,0,0.5671080664564042,0.7463053548360613,0.6329934984869561,0.5976419298836977,0.788594091083097,0.019674478361831126,0.6866859024653401,0.6227168133330964,0.7055351675845632,0.433786542349942,0.5431339166677436,0.7372550353640639,0.5783618196303093,0.4790601515493043,0.7041198160035018,0.3592009181901277,0.4467491888084906,0.28677918279826653,0.4918091712815097,0.40390103579018105,0.635549381296816,0.05690748268181399,0.45540304662037673,0.5347274253838936,0.37932451630072345,0.7630315946802178,0.3505605611447954,0.5278684497490294,0.46138365178797314,0.6895355275506365,0.2232674833542061,0.056423924588857165,0.4097584791172952,0.3623810987709938,0.411990625867254,0.610368310478027,0.5936927455710503,0.6674785841326039,0.7670272072589114,0.0242794450472979,0.42378637443050315,0.6373384219835516,0.5433751980003285,0.5435038397983182,0.4810101194487885,0.5638020849273897,0.4214492121218244,0.32406213669018963,0.07441191842175728,0.38736102283770296,0.6207151721466361,0.6359001910540398,0.4982790368143214,0.5751225059462292,0.6531275014483053,0.4550196735927639,0.7337794326034853,0.5232540296752538,0.6598416880413299,0.7635969933561766,0.8137599595332794,0.6618054665405086,0.6001804899877913,0.3063769725519809,0.6218523127394667,0.3515818014795119,0.0973185389737334,0.5204578421174969,0.5332968456030742,0.7039523856206321,0.4236813258484066,0.471585906412223,0.6677891003911605,0.7524724182179827,0.09929494463403954,0.5968334953242729,0.6822132022255782],[0.10733047728557382,0.14878707030675822,0.47878528954902466,0.025728388888283615,0.37288267167443573,0.3620163803330376,0.19351330496678107,0.5730492700330785,0.19869978628564297,0.07623550351747702,0.16594289793983794,0.42135383819334205,0.5671080664564042,0,0.1770906250652716,0.1221454120484877,0.09337026031605226,0.4269467662487073,0.5337904657559096,0.10120601684929761,0.2647453982484685,0.3687346060475984,0.38880292741618183,0.3269659045389708,0.2992380231382393,0.34110589154074117,0.13005863019871072,0.18428278948225416,0.18053091423245304,0.18112315807622234,0.432059491542804,0.30962285542095275,0.4402456041425709,0.47208827025825284,0.48356960552871386,0.5206141793786696,0.08398326019374829,0.20635323674155187,0.22335261063148037,0.26341055256743945,0.23195439799783502,0.19939943520088435,0.21888104153358634,0.437254356456127,0.6321934840292027,0.1651938162495045,0.4582797494646223,0.2714838549564902,0.1391728820737112,0.4907358212692716,0.42925923871571203,0.25922526321134703,0.6041376689188954,0.32745689131863953,0.25565818870458323,0.2639556946775114,0.026673403579435734,0.2237899552321501,0.19191486944168723,0.1167400601765389,0.5005871012377646,0.5982952644209162,0.16797066087640572,0.32659506238365554,0.17947388196315514,0.04150768296712751,0.18784955558116204,0.36178089746651837,0.10229725368440605,0.5550837752932475,0.06886271732712702,0.557442957900977,0.4595688966748004,0.2302142634705403,0.3080971327660878,0.16813415991064987,0.37153667698380355,0.027494112782820938,0.18784955558116204,0.5389570298850893,0.4217658449905966,0.2958175629847259,0.167198044476414,0.34756171066649855,0.4032413653367349,0.1321952176555148,0.50796338047589,0.49357948898767395,0.3546532048201176,0.2538035392125123],[0.20132583279565217,0.20915907369742315,0.665093344383293,0.1325564820182452,0.3693859494003703,0.5674039599326648,0.10859625217768042,0.7627836214025969,0.24366161591649235,0.23548153297495708,0.35869077644143293,0.35124707237490055,0.7463053548360613,0.1770906250652716,0,0.25583598754593845,0.12284417893649752,0.31261793557365114,0.7077416014878444,0.050681162177588925,0.22725585620213445,0.2892569440650551,0.45321596469286823,0.5096777631796334,0.40319522169123284,0.5159918225181719,0.2443359810601715,0.27186653651858994,0.36165917570321043,0.2888083177418745,0.63800117489816,0.35278519995333296,0.6432477283764945,0.44974840674180755,0.6606252009466597,0.7211241193795471,0.18400207067072002,0.34617803397867675,0.03747556497678695,0.39213117316674495,0.26549652037424165,0.28826719455044625,0.3308452001366593,0.6409433908885794,0.8181864549614382,0.37101158530489375,0.6633893188694128,0.36470262004716814,0.12889693237419336,0.4901155713438727,0.38390888890260416,0.09261568809517101,0.7770342674181592,0.402694423747318,0.4036670743039706,0.44524731935424244,0.17817462960056707,0.41998914150166394,0.3665570082492902,0.309142269583618,0.7066016722849741,0.7607912049125453,0.3709425439170657,0.488191035730606,0.13232840917513994,0.23111232900989,0.19577024135418183,0.31352837289998037,0.30790593160777463,0.503026466021564,0.26870887375144925,0.5385544099695956,0.36910473064790345,0.04490733287768825,0.24618753898346724,0.3266597719951241,0.5775555100402447,0.14541553786003383,0.38035644759212195,0.6967565024726313,0.4478443360664895,0.31684465947996737,0.034766137109132206,0.5489579206777262,0.5996609082851772,0.056423924588857165,0.4358538338738068,0.655047759326769,0.33870215426803124,0.16660285413748],[0.029887645876886852,0.29991504816644726,0.537482968823842,0.16502783946472951,0.524000805859473,0.33743995075193806,0.32496480910324027,0.6211141055558713,0.34975940884205986,0.01980040227990696,0.11118107800987237,0.5668377745163361,0.6329934984869561,0.1221454120484877,0.25583598754593845,0,0.23631551712640123,0.5620396397616777,0.6081665865555957,0.1808820752869872,0.41165652468121955,0.5113923849416164,0.5332968456030743,0.23207195338384384,0.14813868584375875,0.23364211908432547,0.2761147522645304,0.0453213549827497,0.2771437932530336,0.32441393226250936,0.42502140890947754,0.4591636540074042,0.3946916760629608,0.6230180589219576,0.5561990189456243,0.46188083006042807,0.23506355315215527,0.3342737013863423,0.3185968779490139,0.39188702405524783,0.3830422670931376,0.34587531334977156,0.06774322501735053,0.4504752824505323,0.6849861390609798,0.19426357109013437,0.42557523596328484,0.4130642996459464,0.2817249018947327,0.6417055209481229,0.5783011940811466,0.3672545220921013,0.6771193080084855,0.4713069381368334,0.11973061106890921,0.16925166370677677,0.1774104781160826,0.16850736373680775,0.09106676714959719,0.21098157728715655,0.4788336277127437,0.6833490859349642,0.21833579529259065,0.2033683358394232,0.3190732248195313,0.16813415991064987,0.337305952489788,0.5095809221012164,0.1560595736198523,0.7044022681000702,0.0874339757622349,0.7085740725286858,0.6016028747857737,0.27545534851121073,0.45249322645553725,0.04436561101096356,0.3662504884954948,0.09901960539785383,0.2645834469601727,0.6308579711630355,0.5714928391871135,0.44686204092766924,0.27661715633754436,0.2994202567366771,0.3353363861588004,0.25140643620613384,0.6542219239376931,0.5838361169120106,0.5053054094013143,0.39014471771455606],[0.20439603097062733,0.06390870939512526,0.5196111731933866,0.042458712931707186,0.2692443313884948,0.4607826128912367,0.07504791082709214,0.618411202822621,0.10849586534730404,0.19489486666195982,0.28486403820436484,0.3015992247005482,0.5976419298836977,0.09337026031605226,0.12284417893649752,0.23631551712640123,0,0.3047215063987814,0.5578953585573501,0.0888354440871657,0.14659900635278866,0.24723365275374537,0.31930674934056663,0.44714566522914345,0.4115625130717015,0.462698983091962,0.0925273494689685,0.286696579808644,0.2192459337206309,0.13789081652474677,0.5193594355570463,0.2251940581038397,0.5446763636092666,0.36440635466513677,0.511766999713533,0.6281928099786469,0.034064513028459004,0.194476489468569,0.13852391793944438,0.2406573081868331,0.13792758362172358,0.140626234505448,0.33118611135664083,0.5129034456373586,0.6716666060003982,0.2581587249996459,0.5569064239831291,0.21868910309265915,0.01698380018834942,0.3911245129704362,0.3143336377561427,0.15686198667237047,0.6267438783564045,0.2633265943180035,0.37669350081604247,0.38496645308922595,0.05526662865864573,0.3395106931264062,0.31419061765677786,0.17756650541532495,0.5928520398251987,0.6092155159438501,0.24838645806335546,0.44895302344515703,0.057174953543846156,0.10906375890826145,0.0772222427830313,0.2447173837957041,0.19778836872977815,0.4404776757741207,0.1871976882619179,0.45231476290797534,0.337942008420779,0.19512087631687047,0.18743173605801744,0.2895219633596743,0.4608577830832742,0.11113729349759452,0.2443359810601715,0.5449971850113315,0.33218992471612196,0.19939943520088435,0.07808534427544282,0.4558715535657613,0.5161325550853069,0.04115865746894921,0.3889167433145577,0.5035596679053181,0.24602023777825033,0.1317854395325352],[0.5190599970231352,0.2895219633596742,0.7384653789948988,0.3740224713916274,0.1953876851394089,0.7700684042649372,0.20809379074589154,0.8353819283026053,0.2637199404868909,0.5252727216653534,0.6172039096727242,0.06965902010053165,0.788594091083097,0.4269467662487073,0.31261793557365114,0.5620396397616777,0.3047215063987814,0,0.7410357742959993,0.3630038636318082,0.15589369459023836,0.05427765073093685,0.3452937313214675,0.7797305938980963,0.7297866662049902,0.7962441445728117,0.34878197639073705,0.5987451066930122,0.49045237034282246,0.3476105972097149,0.8111710236091652,0.2681569631956789,0.8586253271732617,0.20009025065642594,0.7088589779303468,0.9447686857357083,0.33753204614013305,0.41310247297833297,0.24996378675226724,0.41831171391261074,0.24550095603883995,0.3223022414989507,0.6517406602600931,0.7883989194134492,0.8728874190774284,0.5727434049982677,0.8628566881807127,0.35005093287318095,0.2594115018960638,0.26051052105747746,0.12670524095080127,0.1942979264963111,0.7986480896390887,0.33764085631939467,0.7074666795426726,0.7182409777778436,0.3849664530892259,0.6691440623596958,0.6478532673550276,0.47943746700136985,0.8886861675917395,0.7587139016002359,0.5535767848333966,0.7822496699566847,0.21855279843141573,0.4316467002194107,0.2327058399893074,0.10809358291818175,0.5192754973260494,0.1959612754988994,0.520044450777515,0.2681104940680842,0.04301478161052807,0.35548406283593587,0.10806000608356468,0.6212745540910467,0.7583398725952484,0.43410467821036897,0.5278684497490294,0.6931837196548812,0.2788229766694776,0.22646436428923084,0.26505859896959405,0.7764173498803064,0.8409018589006391,0.2828781115422238,0.11710803885401873,0.6666432470434396,0.16720586389329223,0.144241696313875],[0.6384311516603305,0.48774292533541574,0.062090978653599194,0.5560521907998307,0.5278684497490294,0.3588490317030786,0.6279336393363566,0.09058021844137128,0.47960339712158234,0.5704828308706629,0.4907741933654439,0.661578905382282,0.019674478361831126,0.5337904657559096,0.7077416014878444,0.6081665865555957,0.5578953585573501,0.7410357742959993,0,0.6504413126850075,0.5767050702874468,0.6580688185072383,0.3851220763211904,0.5371172413053397,0.7212222827070457,0.5725649119088742,0.4381320665711953,0.6804854249303551,0.3245181007557001,0.40372025847687,0.2946488366585017,0.44405536313203553,0.41197671003833264,0.5868951163810945,0.022996939104930537,0.4703492922846227,0.4952677515554958,0.3373059524897879,0.7220949626110025,0.3056580115878618,0.48215492034780705,0.41716814854995654,0.6695900081816639,0.2303917595298453,0.10507231811784826,0.38590671217997957,0.37332906482121053,0.36543453096000134,0.56868875029405,0.5452537130826725,0.6189678384839432,0.724289550534204,0.0413551973805547,0.37570909414625514,0.6225873290896131,0.531928261586313,0.507205713363478,0.46644756277760113,0.54611598299629,0.38883964560951584,0.3410519998875732,0.058745177690433845,0.3609988614500298,0.6122634983441433,0.5929630484854215,0.4641197068423249,0.5311098884895852,0.605299692217924,0.42693330691080894,0.6852353471571163,0.49599004813482944,0.6117680804516948,0.7153239964671122,0.7763087692063899,0.6151279789489459,0.579888094658678,0.30551586846294215,0.5892619444520276,0.32084936398346886,0.05631609501603778,0.47179732822014897,0.4859227495930576,0.6635732011521496,0.4213981214574844,0.4743366069514967,0.6279336393363566,0.7038267877296805,0.050892683767320056,0.5487534920300723,0.6374005830694532],[0.13018397181442565,0.18162634856849705,0.6018072005398155,0.06548068550316907,0.37727544765299326,0.48916900094682514,0.13224279868565159,0.6979667422023832,0.22572462414982622,0.15681245341835692,0.27901728894153593,0.3850220395300982,0.6866859024653401,0.10120601684929761,0.050681162177588925,0.1808820752869872,0.0888354440871657,0.3630038636318082,0.6504413126850075,0,0.2420532744241865,0.32487811373510056,0.4370667660348528,0.4309034093211142,0.3389440685716378,0.43823714964625665,0.20051844782500536,0.20729005355536267,0.298751571507066,0.2504034037949659,0.561717685830566,0.34181404495152573,0.5640194352535174,0.4671437897393412,0.6017220728532446,0.6415385215251852,0.13774366706273514,0.29852681168558504,0.10916373310503968,0.3499173455338062,0.253754711149788,0.2567555369205197,0.2627802768226499,0.5673936704499932,0.7553959849905205,0.2951745750572321,0.5848966301994947,0.3350330784923152,0.11749603980412872,0.4999029911714344,0.4087502996720658,0.1576445113298264,0.7204509454872301,0.38107538380935635,0.3295810104396901,0.3664483955182527,0.11426628534482791,0.34032161588434406,0.2880979041771281,0.24090183928028544,0.6291095937486052,0.7088319478355466,0.29777649576902154,0.41242527445833926,0.1405176653013652,0.16206378095805618,0.18811116774854836,0.33731432881722906,0.23244777541548814,0.5328683266222449,0.1896321690822006,0.5562147483477113,0.41135352652518653,0.10073384466312757,0.2725795761826774,0.24978774582828694,0.501064874083507,0.06574014557327344,0.31279752394175026,0.6465464427459464,0.44638465480650275,0.312985990227914,0.06965902010053165,0.4695221528863253,0.5199885632076019,0.055539291424824694,0.4722841781163434,0.6030317678945305,0.3504514127080764,0.1987199985761576],[0.379144129935069,0.10661965040548144,0.5642987686724766,0.21764010219348878,0.1135900396209879,0.5859578093231295,0.08966579466332188,0.6628905969957758,0.07935294893539027,0.36898139402801955,0.4448201147230247,0.12788316929561896,0.6227168133330964,0.2647453982484685,0.22725585620213445,0.41165652468121955,0.14659900635278866,0.15589369459023836,0.5767050702874468,0.2420532744241865,0,0.08080168493903524,0.22341947620886055,0.6064692475129054,0.5871541197879796,0.6258542388748263,0.1644814846628075,0.4614806254672727,0.30562592003102146,0.1639256305960182,0.6263413490424183,0.12355985881821197,0.67495419240891,0.1964517628575739,0.5398639054682609,0.7613873221080938,0.1616779655391769,0.23117720030812958,0.1902418135843988,0.2443359810601715,0.06630525178800156,0.1402187408110046,0.5067763702947412,0.604583363082533,0.7051319554689176,0.39071897973434244,0.6782503577618367,0.18283926816287116,0.10239070016478619,0.23389901125767593,0.13949187415424907,0.15761162909807758,0.6388976045274035,0.1907450678674207,0.5493506455462124,0.5471713703810916,0.21531519040750247,0.49289501190940743,0.48172554524193034,0.2962706715396122,0.7038121332401857,0.6058871556110964,0.37000162597213676,0.6174507697461113,0.0725555917594464,0.2553831900252958,0.051695211487964646,0.06916013419896795,0.3402052852081202,0.2653662547178472,0.350083310593194,0.28564027178523166,0.16999317969995656,0.29471993228376775,0.019453323961600617,0.4617745575458624,0.5734772202072099,0.28654103316565965,0.34299130483180723,0.5393215734497858,0.1967713672674198,0.07847147844736077,0.16394153436466352,0.594603666206996,0.6604294061992693,0.15879176205419632,0.21422641081844845,0.507025431161183,0.08246578664417614,0.0462241824432034],[0.4737663111355649,0.2163928874395795,0.6552585465961338,0.3185394958747348,0.11989556400545084,0.6947264597938058,0.16368691654473239,0.7521130772264566,0.18528746850751374,0.4710861057100379,0.55314738198467,0.03308374489427617,0.7055351675845632,0.3687346060475984,0.2892569440650551,0.5113923849416164,0.24723365275374537,0.05427765073093685,0.6580688185072383,0.32487811373510056,0.08080168493903524,0,0.2670396909006595,0.7152003177660294,0.6841949715362777,0.7338297127173947,0.2735750087265189,0.5554198844036238,0.41206019842594127,0.2677798370978934,0.7324165847437406,0.18555220482617893,0.7840178140493036,0.1519941539147538,0.625619922272638,0.8705863667393466,0.2702662384564726,0.3318627162453402,0.23486012934884104,0.335290063831327,0.16442597113984658,0.2415604022570952,0.6045446195152759,0.7078207266683834,0.7897379112443902,0.5004393387663576,0.7863129267472667,0.26679083504537426,0.20129918762348714,0.20721212739872777,0.07635207019751991,0.1848646434710283,0.7161747612468577,0.255453312975129,0.6528913074800947,0.655258546596134,0.32200952466444166,0.6022083621371142,0.5881169564457085,0.40578936684057926,0.8102081681075045,0.6771388616733884,0.47928657443190065,0.7236253232026585,0.1634000687203842,0.36440635466513677,0.16116232730914157,0.029232645740978558,0.4498765706465959,0.18537336475754385,0.4574636250346686,0.23417897127405385,0.061854873056344926,0.3447687128492758,0.03293529004760702,0.565610910025476,0.6807362133650375,0.38399433664573224,0.4503600805466401,0.6113585330976582,0.20807437765645515,0.14328261743848322,0.23237734994683767,0.7043039452707217,0.7702239034827171,0.24078244480929914,0.11865392510569213,0.5840588767811056,0.08848337967766426,0.09723349159091645],[0.5249847874674866,0.22711213052174797,0.40537280176598045,0.3681710470388188,0.1213719977381754,0.546531972695834,0.32517712306756186,0.4931036815295073,0.18289719782903674,0.4845264973531602,0.5002161682394626,0.255453312975129,0.433786542349942,0.38880292741618183,0.45321596469286823,0.5332968456030743,0.31930674934056663,0.3452937313214675,0.3851220763211904,0.4370667660348528,0.22341947620886055,0.2670396909006595,0,0.6393981618618567,0.7048978655110504,0.6683833201258013,0.2297818478365176,0.6010771614457887,0.27838906819315945,0.1799223054907047,0.5500001789434097,0.07314307339859849,0.6348703153202702,0.17384923309396796,0.3634106720257447,0.719461572017074,0.2828289163141915,0.18652249524337633,0.432618168361218,0.14148330033318737,0.15872639374774017,0.1605805578629678,0.6275481966077369,0.5065071398552434,0.5191859490464126,0.4021396715904782,0.6210598272356022,0.09261568809517101,0.2968738362333234,0.14092444212926503,0.20753016425196455,0.40813304533640066,0.4349288263252559,0.03308374489427617,0.636509052697495,0.5946823860231123,0.33448901930301767,0.5246274302423637,0.5539374493245626,0.3192627000955386,0.6258636097950124,0.38929835107231314,0.3692819601243215,0.6795398472593543,0.2943832748860842,0.3366352245530718,0.22847428517129906,0.2092878752797573,0.38341443085356575,0.2750317721800871,0.431183534280317,0.2153905327895471,0.3074867303729818,0.5263539078165361,0.2430927298615023,0.5554303846986285,0.5136135759089914,0.435830731119521,0.3166849264709863,0.32568788821088285,0.059163821239581416,0.11613878365178494,0.391201191447672,0.580331384082079,0.650836342381081,0.3701131156780489,0.2898493190452389,0.30631749929034163,0.1497080265904055,0.29830189751812514],[0.2909444791338657,0.4735954014497909,0.44851628302997015,0.3815950781098911,0.6840056492346076,0.15872639374774017,0.549316160127023,0.5014120749343033,0.5156116629342891,0.245210176306091,0.13353166045970435,0.7617676700373414,0.5431339166677436,0.3269659045389708,0.5096777631796334,0.23207195338384384,0.44714566522914345,0.7797305938980963,0.5371172413053397,0.4309034093211142,0.6064692475129054,0.7152003177660294,0.6393981618618567,0,0.2057070060950682,0.006473257655792507,0.4246698511907048,0.25858048022596725,0.3321177093881296,0.4545535139548423,0.24889482729594117,0.5982879273633204,0.1668928437537427,0.7841498925287724,0.4894501944096351,0.21261261641334106,0.4159664829030509,0.42488284655444547,0.5680338526759577,0.47030320534330916,0.546531972695834,0.48294666672474096,0.2057070060950682,0.30140426324223807,0.5662787822571073,0.20857214478015473,0.2103093815382397,0.5226898081302858,0.4916471311903284,0.7854092210570675,0.7582307473272879,0.6109367369624299,0.595274925744985,0.5812496795248279,0.11502459784916254,0.03546012414107689,0.3657844335541473,0.08785486827045759,0.1143519295431654,0.29875625236435593,0.2706811927033565,0.6239491573431362,0.24112343185853147,0.053351340655379186,0.5328574046717303,0.3221231452466137,0.5258260212853265,0.6976881221991713,0.24133916786312828,0.8791949648624073,0.23096483403707843,0.8597221713280554,0.8053698691472757,0.536032214383767,0.6533186462043226,0.15875908074578976,0.21008489630193108,0.33763248745211716,0.2950799104104043,0.5910063926394004,0.7035168875234982,0.6038177384293367,0.5179728075589106,0.09502652904106884,0.08848337967766426,0.48594360497070455,0.8447011642858073,0.5467904814211698,0.6756359962459734,0.6076848481160662],[0.1819320507058916,0.4769510816866176,0.6398731149925955,0.34086953910371276,0.7011149034287674,0.37903134795956434,0.49419856468631296,0.7090086651452767,0.5266963510291983,0.1950113243558118,0.20492786113185996,0.7410815962408082,0.7372550353640639,0.2992380231382393,0.40319522169123284,0.14813868584375875,0.4115625130717015,0.7297866662049902,0.7212222827070457,0.3389440685716378,0.5871541197879796,0.6841949715362777,0.7048978655110504,0.2057070060950682,0,0.18321552832223365,0.45059365557098274,0.10285693915586987,0.42716542482968467,0.49697976338282734,0.4726543573507667,0.6347801829497344,0.401445225975305,0.8001370706412356,0.670018111883017,0.4423594289650993,0.4120636767657985,0.49832267870688846,0.4694267437809646,0.554579248662005,0.5600037035907063,0.5199690012139493,0.05158105404417162,0.5163885951657173,0.7745866654569802,0.3174828551166066,0.443851004182901,0.5835957457932096,0.45628586815991273,0.818459854088092,0.7545603947674514,0.5227203964977223,0.7862790558619684,0.6428299685976637,0.07225299684842802,0.17323568828087427,0.3543131531320039,0.22744736513882308,0.14704402389206797,0.36691366885907956,0.5038073530451638,0.8033817053119444,0.34956088216082626,0.1304054886148784,0.4920123866697701,0.33980615859987534,0.5140290377355947,0.6852718617283058,0.30393446512716493,0.8807224377320946,0.24578584496306438,0.8856737204056274,0.7735780090802523,0.39950195141792033,0.6265660470440366,0.12455221032106596,0.42381347978591427,0.2718461391239125,0.40441105882787887,0.758581453309263,0.7470846010970952,0.6237541128898203,0.437596432357671,0.32109923251877676,0.322546713349878,0.4180612727509364,0.8287254296207566,0.7117227165666055,0.6823512431173994,0.5605660433910659],[0.2919403127883005,0.4945268761624841,0.4838897649057526,0.39527424760071095,0.7082099821182842,0.19288499288438196,0.5634940354773247,0.5358964394811672,0.5379269426297171,0.25278181760265483,0.15223980429658265,0.7819319026760408,0.5783618196303093,0.34110589154074117,0.5159918225181719,0.23364211908432547,0.462698983091962,0.7962441445728117,0.5725649119088742,0.43823714964625665,0.6258542388748263,0.7338297127173947,0.6683833201258013,0.006473257655792507,0.18321552832223365,0,0.44772849838565465,0.25094647410240484,0.3616591757032105,0.47988083201391224,0.281764398518322,0.6241253522347178,0.19370627512968824,0.808687640824614,0.5249183198587373,0.23025569008724311,0.43519660728425114,0.45324777847235725,0.576175473615296,0.5001088969705465,0.5694070279890849,0.5079519519381929,0.1942360829583239,0.335567909508625,0.6006119288625261,0.237279435893516,0.23873886282013296,0.5505775190825432,0.5078376531797129,0.8117733887823869,0.7804226998258144,0.6210079046011182,0.6305696104463946,0.6095687803495496,0.10173517209528797,0.04973202568112827,0.3831018358807441,0.11481139324303082,0.12202355732832036,0.32475236771123706,0.29923802313823916,0.6594139415019207,0.270583909354743,0.024595276041753794,0.5487906662549961,0.34229779276478245,0.5454433632753571,0.7185263034198927,0.26511598292312,0.9024650484865189,0.24755004376223358,0.8855982401617538,0.8243536037794806,0.5379025872306347,0.6721043827632777,0.1608393421724917,0.24476221977101187,0.3466684137652877,0.3255710831371654,0.6263764631834284,0.7306353703700207,0.6278659112394743,0.5282540130386096,0.12870248406519547,0.1120539140444003,0.49760358163501545,0.8657985057094881,0.5820787314114841,0.698614332164714,0.6234790716862121],[0.26633405468488486,0.03173458824281886,0.4048957325717969,0.1159272182065411,0.23219532959606318,0.39248803207403815,0.16650871107630733,0.5043973014521055,0.06266184589194947,0.22760883963082518,0.2678160206454877,0.31257751517828963,0.4790601515493043,0.13005863019871072,0.2443359810601715,0.2761147522645304,0.0925273494689685,0.34878197639073705,0.4381320665711953,0.20051844782500536,0.1644814846628075,0.2735750087265189,0.2297818478365176,0.4246698511907048,0.45059365557098274,0.44772849838565465,0,0.34250433048303763,0.11681373020569848,0.023261830580981354,0.4355501059934336,0.15576088413638026,0.48151823508039937,0.3329875806584617,0.3931863098178819,0.5680287133847728,0.033796328931252444,0.07303787705549683,0.2550377169396689,0.1206356019141831,0.0928677313141981,0.04080788681063898,0.3717090022256369,0.41863742067285337,0.5551573156861832,0.1990229679316452,0.48509977753202915,0.11336391052356698,0.10294998925480771,0.3423597661416948,0.30477666767760003,0.26159482522867994,0.5064498393174427,0.1684141289251457,0.391405599012536,0.3695091608108213,0.07646850803889255,0.30847466410366753,0.31387307878534787,0.1036342176538254,0.512404950139078,0.48778745699543524,0.17672553512311898,0.44738081633753074,0.13341834878307554,0.08323392347014288,0.08837886149477898,0.2469669368685227,0.15436056645113239,0.42576081961740625,0.18296234977851422,0.41331063315981464,0.36019160324559557,0.31613416912915004,0.2129172119865706,0.3061252827729209,0.38121378400560263,0.17895072860412253,0.15143384080861685,0.42347793672904416,0.26779534487274315,0.1518584798413066,0.19655381346898013,0.4024242489853054,0.46938980632049476,0.1616779655391769,0.3925972142088366,0.38221112883896446,0.2220054464786544,0.19524405829804847],[0.05335134065537928,0.35992740433537407,0.6080028363630124,0.2180378810104099,0.5818929206689625,0.3912632542537229,0.36414498817257457,0.689321984226205,0.410087036607491,0.09155135206841619,0.17167450817677685,0.613375000423571,0.7041198160035018,0.18428278948225416,0.27186653651858994,0.0453213549827497,0.286696579808644,0.5987451066930122,0.6804854249303551,0.20729005355536267,0.4614806254672727,0.5554198844036238,0.6010771614457887,0.25858048022596725,0.10285693915586987,0.25094647410240484,0.34250433048303763,0,0.35142052301645543,0.39237153994765983,0.48205886773929424,0.5227203964977223,0.43868348930285544,0.6791868256594578,0.6284938799390368,0.4980520407193747,0.29600643498650603,0.406420514066323,0.33792110306687406,0.46419125773367054,0.4430164327662061,0.4121993106303323,0.03293529004760702,0.5126740813962475,0.7537435124826641,0.2657048256558155,0.47383954036082077,0.48202284335646095,0.33009832849566423,0.7017387092215962,0.6297759676397783,0.3909382355205388,0.749062822901201,0.539353966006415,0.12157591298289015,0.20225647966671884,0.23978542838135103,0.22151599935742738,0.1339935322367269,0.2850790369717103,0.5299171390099799,0.756597907864794,0.2913087003879015,0.20923636300332815,0.3640357088884238,0.23829727979895482,0.39158437413787167,0.5595607434998375,0.2302320185454923,0.7558163786795957,0.161750365373091,0.7662250607346482,0.6441075419013367,0.27333153237391117,0.49899721395333607,0.08552081754656321,0.4252004634598518,0.14687836465367793,0.3386437373109265,0.7047055214588027,0.6346946614370973,0.5069080720704957,0.30593295594168773,0.34600624955634124,0.3712148046700746,0.28749255648518873,0.7011149034287674,0.6576466703970715,0.5608236032871362,0.43077996680142655],[0.295060974162577,0.1774104781160825,0.27465307972652003,0.20436316222997414,0.34081976144787757,0.25813201078540954,0.3089425803950573,0.37213757918575413,0.19794390596316946,0.23249471519054993,0.20204409088253122,0.44378286490331004,0.3592009181901277,0.18053091423245304,0.36165917570321043,0.2771437932530336,0.2192459337206309,0.49045237034282246,0.3245181007557001,0.298751571507066,0.30562592003102146,0.41206019842594127,0.27838906819315945,0.3321177093881296,0.42716542482968467,0.3616591757032105,0.11681373020569848,0.35142052301645543,0,0.11635004114101466,0.2917251301217421,0.2479325597647895,0.3485260477667232,0.43699763473835196,0.2747692622687244,0.4354708399686062,0.15720835050366577,0.06630525178800156,0.3866824856248258,0.10948538121542145,0.2203374062353388,0.14445410476918696,0.35821562257758105,0.27282874209957586,0.4280625096277424,0.09568041498327264,0.3464478221235868,0.16430695990612815,0.24300814035994311,0.4300854018800116,0.42577768710333574,0.4014773019710724,0.39483648909314545,0.2212525259765168,0.34454699935922495,0.2897963872394939,0.1559351782967485,0.21829237181350744,0.25968797751259487,0.038619721279251715,0.3692935158290969,0.38935702906249475,0.062090978653599194,0.3762773128874227,0.27741928945200833,0.11061080824938438,0.23338497539197745,0.3776189338398355,0.09489038437647307,0.5373854645768095,0.1608393421724917,0.5057187192170882,0.49454152812399843,0.4267919598666693,0.35346771803236193,0.2736763994013555,0.23985391329744696,0.23644848024913992,0.011747400516706917,0.33149691153098465,0.3461412296532958,0.26455731741701305,0.32602078789908445,0.2800168068621056,0.3500833105931941,0.2882430157424107,0.5170857653326607,0.28541589807876333,0.3407409331204779,0.3410519998875731],[0.31742528851238044,0.05537579950549276,0.3789298175212918,0.16797844962210365,0.20147898275549855,0.4026944237473181,0.19522353266744583,0.47848004862247606,0.05573868648828462,0.27566188022765487,0.30310860510339,0.2984705976260749,0.4467491888084906,0.18112315807622234,0.2888083177418745,0.32441393226250936,0.13789081652474677,0.3476105972097149,0.40372025847687,0.2504034037949659,0.1639256305960182,0.2677798370978934,0.1799223054907047,0.4545535139548423,0.49697976338282734,0.47988083201391224,0.023261830580981354,0.39237153994765983,0.11635004114101466,0,0.4357614159661222,0.11550315803535717,0.49291852814992754,0.3008791520353415,0.36144705362140717,0.5798805357914928,0.08426806278131685,0.04030054332083617,0.2923797934056282,0.0747082140234558,0.0750773972795632,0,0.4190176833397299,0.41185492779784044,0.5256932797111287,0.22092739755378543,0.4917885507972649,0.06143172260660009,0.1380286514058976,0.3035656191479696,0.28235624662905445,0.2915768091484983,0.470475241560257,0.11802917353156972,0.43302013018484764,0.40278326007272286,0.12842985293247228,0.3377036167359819,0.35288162939740875,0.1269415384570587,0.5136559845457023,0.4476416016501496,0.19354777619653366,0.48380899588102955,0.16025657985557445,0.12819579275461213,0.1010055532177385,0.23228929141733246,0.18631596186591956,0.39809976145671144,0.22520612872106668,0.3767918101379588,0.3492365330240201,0.36178089746651837,0.21067452173217524,0.34952440675778246,0.38506279817732114,0.23103564206508442,0.1559849464643931,0.38227081801075813,0.22504916596244565,0.12235842174314047,0.2365293817250204,0.41995497093377476,0.4888461803454798,0.2042119063551092,0.3729933623358449,0.34298718060898603,0.19748374780959824,0.2104247491291339],[0.47563033686457556,0.4961887246274823,0.20424479641111978,0.4786342031201293,0.6486687529911009,0.06469799432244372,0.6188991731411615,0.23130100061952966,0.5185783134071105,0.4080663577914449,0.28486403820436484,0.7614261415063017,0.28677918279826653,0.432059491542804,0.63800117489816,0.42502140890947754,0.5193594355570463,0.8111710236091652,0.2946488366585017,0.561717685830566,0.6263413490424183,0.7324165847437406,0.5500001789434097,0.24889482729594117,0.4726543573507667,0.281764398518322,0.4355501059934336,0.48205886773929424,0.2917251301217421,0.4357614159661222,0,0.5529602424175297,0.08848337967766426,0.7376613636740215,0.257254402585106,0.15338740576709445,0.4637649099260482,0.375162852571725,0.6791283326984372,0.39132165793518925,0.5396885810507802,0.4627707406956839,0.4472519807951641,0.0352694279871542,0.29399402263660723,0.23800440068048334,0.05165717696022523,0.4618245710072722,0.5524090171587115,0.7179658124690337,0.7382554562865502,0.7050671701843182,0.34002240576617065,0.5070511894736877,0.37243578213647727,0.2705839093547429,0.43930306375746947,0.23163084728457975,0.32039300303542523,0.31365823790158476,0.049125596258336006,0.3814642818150671,0.2421211864749584,0.33105404656506604,0.5904568270765955,0.383637567991187,0.5529048797449243,0.6956416354844653,0.3011441355351593,0.8407731069178336,0.34796890480910436,0.7936131382967939,0.813261023913993,0.6886489074259643,0.6741713734042638,0.3676105554401423,0.031810326733532325,0.47260236519292204,0.2551241245932077,0.3669640406487392,0.6328358909968652,0.5778993968522991,0.6193938745214113,0.1251206656775392,0.1584401393608325,0.5814356860653815,0.830210496964518,0.3313266432680577,0.6540377702359016,0.6584594652489458],[0.4435004689202058,0.1364134312385597,0.44638465480650275,0.2810526894859501,0.06677095652557614,0.5329911839392734,0.22315799176881906,0.5413022226899091,0.08789424924205205,0.41110261167232953,0.44756112758193345,0.19153258189891742,0.4918091712815097,0.30962285542095275,0.35278519995333296,0.4591636540074042,0.2251940581038397,0.2681569631956789,0.44405536313203553,0.34181404495152573,0.12355985881821197,0.18555220482617893,0.07314307339859849,0.5982879273633204,0.6347801829497344,0.6241253522347178,0.15576088413638026,0.5227203964977223,0.2479325597647895,0.11550315803535717,0.5529602424175297,0,0.6233074060295883,0.16007004111718845,0.41332797541972793,0.709931066256042,0.1981128473552793,0.15353034862054027,0.330533836580978,0.13450102251577703,0.0593723992658252,0.0884180667164222,0.5553988832476116,0.5187435898196299,0.5764238589262243,0.36276505831067446,0.6167027785819049,0.06269531563216307,0.19824115881105264,0.15909379495937312,0.15813705145249174,0.3064638760446316,0.5016289601000027,0.04142058877996334,0.5756327265109155,0.5472219590565321,0.2539933460335246,0.4814911884177713,0.49664422812926623,0.2705736671644808,0.6308579711630355,0.46323223504450955,0.33329683540541616,0.6282278251997021,0.19286424900155816,0.2679090438051014,0.12831286637614142,0.13235693591087966,0.33080682741090206,0.26108755811195755,0.367192570588786,0.23249471519054993,0.24562947194465742,0.4254773522502117,0.1497080265904055,0.4907978055551187,0.5083289653371978,0.3513116213898379,0.28865380517879197,0.3972008027751281,0.0833432285441138,0.016850140502028328,0.2901955650141215,0.5568671461118694,0.6267602551307708,0.2709114747572993,0.24969417885788625,0.36953610822909605,0.07795632308793059,0.1975921043889393],[0.45111478965983787,0.5401200516912249,0.321335785686146,0.4923097040312593,0.7175652041592433,0.06143172260660009,0.6481184079146947,0.34533471737802324,0.5706568269425769,0.39036793203854264,0.26074888664883517,0.8198652903748469,0.40390103579018105,0.4402456041425709,0.6432477283764945,0.3946916760629608,0.5446763636092666,0.8586253271732617,0.41197671003833264,0.5640194352535174,0.67495419240891,0.7840178140493036,0.6348703153202702,0.1668928437537427,0.401445225975305,0.19370627512968824,0.48151823508039937,0.43868348930285544,0.3485260477667232,0.49291852814992754,0.08848337967766426,0.6233074060295883,0,0.8117149965105953,0.37341675908053923,0.05797243058546791,0.49664714675025834,0.4409512688637803,0.6925929142293261,0.4682896619096803,0.5960117421765028,0.5214955360650495,0.3931681401488564,0.15270478074079638,0.40595870288989416,0.25874581022785714,0.01833205303670283,0.535026706133765,0.5833552803194798,0.7985757948210673,0.8032987620861953,0.7261121471396108,0.4570850333750132,0.5860426245561308,0.3072221827135068,0.2092299231855852,0.4607920097961582,0.1992314461890349,0.2774443222794738,0.3502208850625524,0.07768343258793597,0.49891585026017116,0.2760644663495795,0.2468779742706286,0.6237165072584419,0.406804396168734,0.596943797883886,0.7536572689403759,0.31790324416648047,0.9133899882106142,0.3455518686000777,0.874704010711538,0.8694378994903043,0.6840637421043377,0.7234010651034365,0.32698745324617845,0.09512544954626234,0.47008192878331123,0.30816539261668274,0.4828837317317861,0.7132289905675218,0.6420622571261408,0.6356486423123525,0.06683501405190528,0.054056278557222566,0.5991873002830471,0.8945520280979479,0.44564828253760685,0.7182615084394406,0.6959718316755323],[0.5971790450711932,0.2951367125161872,0.6077258100571368,0.43219257121830473,0.07182783826941555,0.7215166956537965,0.31325504774889923,0.6959316235162734,0.24657194629269655,0.577100065715886,0.6296571881210197,0.10269394327607753,0.635549381296816,0.47208827025825284,0.44974840674180755,0.6230180589219576,0.36440635466513677,0.20009025065642594,0.5868951163810945,0.4671437897393412,0.1964517628575739,0.1519941539147538,0.17384923309396796,0.7841498925287724,0.8001370706412356,0.808687640824614,0.3329875806584617,0.6791868256594578,0.43699763473835196,0.3008791520353415,0.7376613636740215,0.16007004111718845,0.8117149965105953,0,0.5662504322644049,0.8981530158432154,0.3598879562681098,0.34243825090850005,0.4042057051028735,0.3173987160837244,0.21349995075217532,0.2722741944016481,0.719625533749588,0.6995288355452615,0.7208275062813296,0.5504451524577619,0.8037318189623263,0.24802118368717763,0.3238361077481242,0.032187612843972924,0.04737788770722953,0.35954853755976696,0.6337531964384585,0.20271378052135403,0.7507566956436708,0.7308958535113875,0.41768019587524585,0.6673309853219638,0.6753812139038532,0.45679773799164564,0.8150787133052909,0.5844366326339923,0.521737940446059,0.8093466915829812,0.2978656859056105,0.4433803183127364,0.2586658237051927,0.10898595112020815,0.5145768482284473,0.07441191842175725,0.5433993205396856,0.060201834113979134,0.13801027999452,0.5130846030708942,0.1758960886461989,0.6639806698209182,0.6952858712367765,0.503346451239461,0.47771765567391733,0.5232901424508434,0.0861487456103142,0.15213819626826824,0.3875489000116162,0.7459114782991444,0.8157491229321071,0.38423201129098616,0.09433186388888545,0.5075317843149652,0.08941989204243629,0.2556420196663325],[0.5867605908737582,0.4447812588370014,0.02773801045178898,0.5072543505578264,0.5008390715223214,0.31463289329869215,0.5851864516016754,0.10073384466312757,0.4398203865154515,0.5186707622932624,0.43909335259986915,0.632993498486956,0.05690748268181399,0.48356960552871386,0.6606252009466597,0.5561990189456243,0.511766999713533,0.7088589779303468,0.022996939104930537,0.6017220728532446,0.5398639054682609,0.625619922272638,0.3634106720257447,0.4894501944096351,0.670018111883017,0.5249183198587373,0.3931863098178819,0.6284938799390368,0.2747692622687244,0.36144705362140717,0.257254402585106,0.41332797541972793,0.37341675908053923,0.5662504322644049,0,0.436938371177519,0.4488727702235227,0.2936946440276893,0.6771388616733884,0.26682713956297444,0.44472296903218095,0.3767918101379588,0.6177900485039346,0.19371316382881784,0.1363020950362209,0.3339187816283774,0.337385519868558,0.3305039656323081,0.5245720053656271,0.5284632071482797,0.5930419759244683,0.6814707729158127,0.09248947039357258,0.3470398587516801,0.5717303916388676,0.4821309088879178,0.4584717652980013,0.4158044059688074,0.49468802519230276,0.33825544592750284,0.3108439188866366,0.10589370509059635,0.3090742069751471,0.5634292988458907,0.5504530953079395,0.41422883788056153,0.4902751349421656,0.5745356003494693,0.3752273778521864,0.666678532212266,0.44419803767225674,0.5978181770411753,0.6870202286765495,0.7283862507175333,0.5800392523012585,0.528075034698465,0.26180064973319433,0.5387814254324091,0.26960933268838877,0.08074578029204688,0.4513096699036994,0.45342589686655366,0.618050911106964,0.37600466738432237,0.43167667332904,0.5819104997809986,0.6800982583953842,0.050449769055465485,0.5194853188178118,0.5979160707184347],[0.5198348430458439,0.6263436900436871,0.3820767965133763,0.5735968899565608,0.8043395614861039,0.1483464267913882,0.7319671359020997,0.3884171913772511,0.6574254415836831,0.4630794909235341,0.33453966380837424,0.9067703268358503,0.45540304662037673,0.5206141793786696,0.7211241193795471,0.46188083006042807,0.6281928099786469,0.9447686857357083,0.4703492922846227,0.6415385215251852,0.7613873221080938,0.8705863667393466,0.719461572017074,0.21261261641334106,0.4423594289650993,0.23025569008724311,0.5680287133847728,0.4980520407193747,0.4354708399686062,0.5798805357914928,0.15338740576709445,0.709931066256042,0.05797243058546791,0.8981530158432154,0.436938371177519,0,0.5816693706968523,0.5276810797960884,0.7726140167636284,0.5539795561738371,0.682926843706048,0.6084626748999096,0.4471263325756794,0.2147116128318284,0.4435004689202059,0.34382757739988085,0.07333815113518842,0.6213028644289912,0.6677362563330149,0.8841612500573097,0.8902412618946626,0.8079455883891715,0.5075718144545156,0.671651278859367,0.35654797253868004,0.26711741546520706,0.5440422136637695,0.2727016423437704,0.34213247983254824,0.43635521082731926,0.10285693915586987,0.5550601353432938,0.36239285822335227,0.28304040076537795,0.7083514786058489,0.49076238686835005,0.6830690552745321,0.840566711237917,0.40158776766663784,1,0.42430786782366364,0.9602662550140739,0.9562399395660196,0.7583242841972838,0.8098351531304352,0.39097111401551815,0.17709062506527168,0.5469796256049906,0.3951295840387352,0.546531972695834,0.7987722736880036,0.7289916609854692,0.7166831082934554,0.14409108261388415,0.09805725655017987,0.6807794437942561,0.9815135541866123,0.5126740813962475,0.8052062088712992,0.7810877014999094],[0.2163928874395795,0.03591078207348132,0.4565955822867253,0.05653161821332421,0.26021891854114054,0.4103769416336267,0.1261821426064843,0.5554645093545545,0.08572159355048005,0.18838658028443278,0.2541505181537574,0.31790324416648036,0.5347274253838936,0.08398326019374829,0.18400207067072002,0.23506355315215527,0.034064513028459004,0.33753204614013305,0.4952677515554958,0.13774366706273514,0.1616779655391769,0.2702662384564726,0.2828289163141915,0.4159664829030509,0.4120636767657985,0.43519660728425114,0.033796328931252444,0.29600643498650603,0.15720835050366577,0.08426806278131685,0.4637649099260482,0.1981128473552793,0.49664714675025834,0.3598879562681098,0.4488727702235227,0.5816693706968523,0,0.13386170253486918,0.2012792017210599,0.18336729056547124,0.11898604746485071,0.0946796841966552,0.3317989398006099,0.4540614978424583,0.6086070583438328,0.20893350314978135,0.5056469869610413,0.17190373135184533,0.059649739873627164,0.3777660534135338,0.32039300303542523,0.21584836610945016,0.564309111829035,0.22315799176881906,0.36340676241469094,0.3565041990445453,0.02883608484740652,0.3032563955717306,0.2922461020825414,0.12121887964506992,0.5386192807951018,0.5479483486877578,0.19458630349195183,0.4279215119023756,0.09852730884637083,0.06533442559243724,0.08130355168650324,0.255404768159074,0.15292417408684392,0.4453928693648592,0.15993204628148078,0.44468086637879295,0.36043198666987786,0.2547188612771877,0.2083654072847516,0.2760594373021756,0.4064205140663229,0.1246720598865611,0.18442660461937216,0.48424260629439037,0.30978138970582064,0.18283926816287116,0.141059818177899,0.4112141470413737,0.4746352206586367,0.1041767652740021,0.4026979775513344,0.44215107822371297,0.24319420256286092,0.17042445739460937],[0.3384058009501783,0.1221454120484876,0.30976780395990394,0.20832662395475018,0.24768315278845968,0.35058077037397783,0.26253830983865345,0.40935968534819256,0.12396158405209194,0.28613235793411096,0.28539149998358154,0.3574501913483454,0.37932451630072345,0.20635323674155187,0.34617803397867675,0.3342737013863423,0.194476489468569,0.41310247297833297,0.3373059524897879,0.29852681168558504,0.23117720030812958,0.3318627162453402,0.18652249524337633,0.42488284655444547,0.49832267870688846,0.45324777847235725,0.07303787705549683,0.406420514066323,0.06630525178800156,0.04030054332083617,0.375162852571725,0.15353034862054027,0.4409512688637803,0.34243825090850005,0.2936946440276893,0.5276810797960884,0.13386170253486918,0,0.3560582220104369,0.02883608484740652,0.13862462615885615,0.06204043614719301,0.42403365067977045,0.3471581542588182,0.4573090690440891,0.18731828996416,0.4356788844448892,0.0692538682666373,0.2023891236573752,0.33480964876830377,0.3349993620393176,0.3587896935484107,0.4050795546420804,0.12738363389693522,0.423962530247303,0.37917419986545425,0.16200756474830635,0.3094415824475504,0.3403049994598548,0.1049807420465441,0.45328277120589183,0.385762480207768,0.15532026597837434,0.46411970684232495,0.22791954159024333,0.14061718972611326,0.1702705368004948,0.29192119128283683,0.16956869160716495,0.44353943012390695,0.22378388618325876,0.4104188397878473,0.4097235117122789,0.4175153051455974,0.27682791993003414,0.3460103405761385,0.32764191251994385,0.2613571541142327,0.10674403126585906,0.3215896835262463,0.251056057410732,0.17399288249368702,0.29824564482241095,0.37509072388868686,0.4452667286032011,0.2636937338549287,0.4268289835670604,0.28018059801488354,0.250315535740769,0.2797187821272808],[0.26570482565581544,0.2083847965735816,0.6867180560027183,0.17233091633051764,0.3320539779859184,0.613470523682964,0.07855709777822419,0.7857030353612633,0.2322129500121588,0.29447340063876026,0.41309206239639523,0.2968032106328679,0.7630315946802178,0.22335261063148037,0.03747556497678695,0.3185968779490139,0.13852391793944438,0.24996378675226724,0.7220949626110025,0.10916373310503968,0.1902418135843988,0.23486012934884104,0.432618168361218,0.5680338526759577,0.4694267437809646,0.576175473615296,0.2550377169396689,0.33792110306687406,0.3866824856248258,0.2923797934056282,0.6791283326984372,0.330533836580978,0.6925929142293261,0.4042057051028735,0.6771388616733884,0.7726140167636284,0.2012792017210599,0.3560582220104369,0,0.3956140129669274,0.24757223304882864,0.28582063024453386,0.39639732858899274,0.6770150126493469,0.8382878102820563,0.41315799194220953,0.7098999228499354,0.35772004982324573,0.12535938899135715,0.4492097432477818,0.3344932399479738,0.027167268299345414,0.790129442911291,0.38776614244881735,0.46709740500722985,0.5036115185123072,0.21140951989709936,0.4733969512265847,0.42571021340537823,0.34156158409716925,0.7502075753317726,0.7690002090749334,0.4087432903074496,0.5505033974975727,0.11133421621995106,0.2668738102541524,0.1796283660695549,0.26630808004219814,0.35026942884287415,0.4491552018225004,0.3194256544852585,0.4918003340310928,0.309740630833411,0.08095527615232116,0.19939271801282266,0.38794647809403676,0.6193938745214111,0.20143904040505564,0.4104607339474559,0.7036236922625645,0.4158044059688073,0.2901571117899188,0.0318103267335323,0.5996731099606324,0.6534670275622692,0.07000054578039085,0.3788997295750836,0.6641378355310875,0.2993455064702338,0.1202660415999407],[0.3961231518618042,0.1582354039922606,0.29172513012174206,0.26219078861528583,0.23001887731828285,0.37889972957508367,0.2961244242696141,0.38979318864599594,0.14498399135823134,0.34384403683267445,0.3375529736831452,0.35182761963404435,0.3505605611447954,0.26341055256743945,0.39213117316674495,0.39188702405524783,0.2406573081868331,0.41831171391261074,0.3056580115878618,0.3499173455338062,0.2443359810601715,0.335290063831327,0.14148330033318737,0.47030320534330916,0.554579248662005,0.5001088969705465,0.1206356019141831,0.46419125773367054,0.10948538121542145,0.0747082140234558,0.39132165793518925,0.13450102251577703,0.4682896619096803,0.3173987160837244,0.26682713956297444,0.5539795561738371,0.18336729056547124,0.02883608484740652,0.3956140129669274,0,0.1490629957496355,0.08312451183497103,0.48101312753901904,0.35536433838628745,0.43211938214969353,0.23412650146076322,0.4579333000193494,0.042886839875641736,0.24137888993048096,0.30129280502545897,0.32158530753510645,0.3921166010735281,0.3705702821846711,0.08877032638188002,0.4779870444528635,0.42806250962774245,0.21726037119564875,0.3567667655028087,0.3937201490779918,0.15933833091909147,0.46888471971459433,0.34492875750059304,0.20053181611475973,0.5141872253211531,0.26092356352654755,0.1983828924946499,0.19699550027075488,0.2887503843357232,0.2236806900488044,0.42045701668712687,0.28053270331906566,0.37742269156563113,0.4055423001477154,0.46477261274733284,0.28591320660883235,0.4017445090453566,0.3495770923229879,0.3178943991205504,0.14659900635278866,0.2791766331444188,0.21596738786659217,0.16632028882158825,0.3402052852081202,0.4102931333367772,0.4808175647563518,0.30780573530072874,0.4131892182960728,0.24112343185853136,0.23968837820197864,0.30277121169635657],[0.36228701042920636,0.05424079625453159,0.46906956691454593,0.19767333783048915,0.11298622836632133,0.5059740079784425,0.14022780688700773,0.5675994263854507,0.0043324575839040055,0.33617338445934,0.3890598870445958,0.19486745604710565,0.5278684497490294,0.23195439799783502,0.26549652037424165,0.3830422670931376,0.13792758362172358,0.24550095603883995,0.48215492034780705,0.253754711149788,0.06630525178800156,0.16442597113984658,0.15872639374774017,0.546531972695834,0.5600037035907063,0.5694070279890849,0.0928677313141981,0.4430164327662061,0.2203374062353388,0.0750773972795632,0.5396885810507802,0.0593723992658252,0.5960117421765028,0.21349995075217532,0.44472296903218095,0.682926843706048,0.11898604746485071,0.13862462615885615,0.24757223304882864,0.1490629957496355,0,0.04815732539807659,0.47977530396039786,0.5144046580610175,0.6100130872574882,0.3188263115796574,0.5957072967524754,0.09013032339202855,0.10992781178621976,0.22990038970368987,0.18309259363470354,0.22990038970368987,0.5451414961549056,0.11123578942549842,0.5082718591005909,0.4910574688845681,0.17669570325379869,0.4303025662478781,0.4332624670306815,0.22324923805712596,0.6176334804283197,0.5140290377355946,0.29394177018011197,0.5677742631531068,0.10769011652393579,0.20113925180542164,0.04076391646206236,0.12865383451330714,0.2762203257186376,0.30409570680806663,0.30103258946704786,0.29698209910156015,0.24521017630609093,0.33867294694967676,0.10969571171762452,0.42159223516317146,0.4891216270320201,0.26889433339257124,0.2596507750660365,0.4474581009407889,0.16558842923700356,0.034934340982378756,0.203625685271478,0.5207565192740315,0.5887729142323518,0.18281029738828397,0.27188183365713287,0.4136746779420351,0.10021246232981511,0.12880946028579443],[0.3354584804369306,0.0501595764248702,0.3973627552197678,0.18015715959717216,0.1726354943427227,0.43121353755566844,0.1843690901969177,0.4965858523058489,0.03430733082189995,0.29732077673444557,0.3304143378906344,0.27043536330641216,0.46138365178797314,0.19939943520088435,0.28826719455044625,0.34587531334977156,0.140626234505448,0.3223022414989507,0.41716814854995654,0.2567555369205197,0.1402187408110046,0.2415604022570952,0.1605805578629678,0.48294666672474096,0.5199690012139493,0.5079519519381929,0.04080788681063898,0.4121993106303323,0.14445410476918696,0,0.4627707406956839,0.0884180667164222,0.5214955360650495,0.2722741944016481,0.3767918101379588,0.6084626748999096,0.0946796841966552,0.06204043614719301,0.28582063024453386,0.08312451183497103,0.04815732539807659,0,0.4413167522536836,0.43730370981347116,0.5417781684960903,0.24982626427791052,0.5198208663506695,0.049282543942185314,0.13278423332960704,0.2764012238736778,0.25345070242653034,0.28013593630714156,0.4825959303129649,0.09987957532888961,0.4584969420924674,0.4306097619557172,0.144913433096793,0.3661068468428148,0.3792343330814254,0.15556148925634575,0.5407693376086312,0.45660190092638203,0.22254273832037524,0.510994782254033,0.14916635761807998,0.1515953212636191,0.08498368582281253,0.204336863903767,0.21405604567938694,0.36916638463081547,0.25018368180563116,0.34905396434486446,0.321637815824292,0.3619535987707726,0.18583089804536057,0.374151876670342,0.4127900488045352,0.24650513137675753,0.18440503852747203,0.3905727455559538,0.19939271801282266,0.09337026031605226,0.23260616340042514,0.44892092377366954,0.5178381596517646,0.20289247884435013,0.3442182928242616,0.35319084294759046,0.1685384322281695,0.1922410280841655],[0.10394616458168042,0.3966533078119043,0.5923979314258142,0.2603674074516266,0.6207151721466361,0.3544212022351905,0.4154317499038791,0.6682975196758216,0.4464879140397456,0.11530129288326163,0.1502737338925414,0.6610433036020298,0.6895355275506365,0.21888104153358634,0.3308452001366593,0.06774322501735053,0.33118611135664083,0.6517406602600931,0.6695900081816639,0.2627802768226499,0.5067763702947412,0.6045446195152759,0.6275481966077369,0.2057070060950682,0.05158105404417162,0.1942360829583239,0.3717090022256369,0.03293529004760702,0.35821562257758105,0.4190176833397299,0.4472519807951641,0.5553988832476116,0.3931681401488564,0.719625533749588,0.6177900485039346,0.4471263325756794,0.3317989398006099,0.42403365067977045,0.39639732858899274,0.48101312753901904,0.47977530396039786,0.4413167522536836,0,0.48356960552871386,0.7334897545967379,0.257254402585106,0.43114352686995583,0.5066475002670251,0.37607284596452223,0.7383994094743861,0.6740491837735664,0.4483845402552342,0.7366401292005278,0.5654767294016232,0.06351154158859788,0.15496200785116548,0.27412211546655163,0.18875325512578386,0.09982004069737752,0.29517457505723216,0.48903278926467203,0.7490431050168472,0.28696860217652453,0.14961356784070007,0.41221669657186993,0.2619325119284995,0.43345491810314246,0.6048666034446617,0.23434214383546295,0.8002055290449767,0.17155214868808003,0.8052963179391132,0.6942090432212565,0.33503307849231523,0.5465426351447914,0.06073343603885044,0.39316450612120907,0.19174813447555625,0.33926915104105826,0.7007218632359158,0.667736256333015,0.5435842262452418,0.3611561804947818,0.30373626123592634,0.3213401647940306,0.3398727096920604,0.7486328596678337,0.6536131291929036,0.6017974722427982,0.48153326038493915],[0.4970410119281777,0.4792050738155636,0.14010990998694403,0.47963054416936884,0.6143677490658049,0.1137083451904067,0.6086118705622158,0.1717967931014745,0.4962354611157117,0.4276494647736999,0.3122359964670814,0.7325414964878569,0.2232674833542061,0.437254356456127,0.6409433908885794,0.4504752824505323,0.5129034456373586,0.7883989194134492,0.2303917595298453,0.5673936704499932,0.604583363082533,0.7078207266683834,0.5065071398552434,0.30140426324223807,0.5163885951657173,0.335567909508625,0.41863742067285337,0.5126740813962475,0.27282874209957586,0.41185492779784044,0.0352694279871542,0.5187435898196299,0.15270478074079638,0.6995288355452615,0.19371316382881784,0.2147116128318284,0.4540614978424583,0.3471581542588182,0.6770150126493469,0.35536433838628745,0.5144046580610175,0.43730370981347116,0.48356960552871386,0,0.2361130539868525,0.24507026854100847,0.1147046723171101,0.42705442665183163,0.542111363185828,0.6759320377667046,0.7055832040100193,0.6984118904171944,0.2765418483916889,0.46784521670978096,0.415228037235612,0.3147221728158853,0.43682640832457337,0.26582453454848126,0.3549050487705425,0.30668332149592864,0.0946796841966553,0.3172170832367315,0.24102118095800415,0.38244610487434444,0.5782254036327731,0.38184160925391614,0.5348770856146099,0.6675402579509578,0.3064638760446316,0.8029300254769471,0.36163953960864365,0.7508845713674478,0.7853564739353385,0.6963336048076829,0.6515220202368246,0.3995305928287135,0.06384263275517045,0.48261392264481473,0.24081087685653385,0.30345027085488924,0.5915084972783046,0.5472565698018967,0.616472270238151,0.17794493908838763,0.219813850340139,0.5782254036327731,0.7973643805293723,0.26897157417417533,0.6225543653552631,0.6428756380471764],[0.7226931943175577,0.6084073192415657,0.12461214679265413,0.6612189201008893,0.6614967030589453,0.37873420618293446,0.7487236056418495,0.03659265867143795,0.6049029071587919,0.6528845578788318,0.5553988832476114,0.794878485090185,0.056423924588857165,0.6321934840292027,0.8181864549614382,0.6849861390609798,0.6716666060003982,0.8728874190774284,0.10507231811784826,0.7553959849905205,0.7051319554689176,0.7897379112443902,0.5191859490464126,0.5662787822571073,0.7745866654569802,0.6006119288625261,0.5551573156861832,0.7537435124826641,0.4280625096277424,0.5256932797111287,0.29399402263660723,0.5764238589262243,0.40595870288989416,0.7208275062813296,0.1363020950362209,0.4435004689202059,0.6086070583438328,0.4573090690440891,0.8382878102820563,0.43211938214969353,0.6100130872574882,0.5417781684960903,0.7334897545967379,0.2361130539868525,0,0.46294852964428757,0.3606446613603343,0.4953145701384459,0.6870202286765495,0.6784737485293092,0.752833556306377,0.8448293374966954,0.07225299684842802,0.5087656274035465,0.6735034351247685,0.5753890928100627,0.6129664782249913,0.5189620143228485,0.6054447954820259,0.4867949750561233,0.3125954803889373,0.1348478398247773,0.44452213811456387,0.646812096014527,0.7142101472167778,0.565050763297872,0.6549961738267146,0.7377754171413975,0.5136277124894999,0.8187639296302284,0.5798981730022901,0.7439212211959988,0.8487252596176826,0.883833581982164,0.7450418660096347,0.6454827833569419,0.3274353709922429,0.6855424409700297,0.41534889500213235,0.17661364329526216,0.6057639059046428,0.6174602624817521,0.7785479030922756,0.4430456839339219,0.48124469723147584,0.7417407320862208,0.837889713971652,0.18434751829107524,0.681775176392264,0.7629870427040766],[0.23110643081685672,0.25512412459320766,0.31429341937567606,0.2120595559313784,0.45139590313181555,0.17362978240339552,0.36093591606026776,0.3998562542443795,0.2903877616894584,0.161097774184329,0.08426806278131693,0.5405754376049018,0.4097584791172952,0.1651938162495045,0.37101158530489375,0.19426357109013437,0.2581587249996459,0.5727434049982677,0.38590671217997957,0.2951745750572321,0.39071897973434244,0.5004393387663576,0.4021396715904782,0.20857214478015473,0.3174828551166066,0.237279435893516,0.1990229679316452,0.2657048256558155,0.09568041498327264,0.22092739755378543,0.23800440068048334,0.36276505831067446,0.25874581022785714,0.5504451524577619,0.3339187816283774,0.34382757739988085,0.20893350314978135,0.18731828996416,0.41315799194220953,0.23412650146076322,0.3188263115796574,0.24982626427791052,0.257254402585106,0.24507026854100847,0.46294852964428757,0,0.26980450231926467,0.28517183186329526,0.29576087996452594,0.5488331481550137,0.5304850403556248,0.44206640941183933,0.45436311551646613,0.3436917593428497,0.2272618430227844,0.16524121213782642,0.1752811814253034,0.09367078953236711,0.14314007721172753,0.0666266701926258,0.3080561702201948,0.46341920413317395,0.005419508044125181,0.25207859411224004,0.3359968913524278,0.1201529377474771,0.31131759369415923,0.4748514526859267,0.03416175217281349,0.647980185195026,0.08966579466332188,0.6236577441215335,0.5880050758929276,0.4231625027902744,0.4390474657587766,0.16794729279111947,0.17767788136837187,0.20857214478015462,0.062443993961865105,0.4144883619815595,0.46631439468268027,0.3720725568070324,0.3540729349000791,0.1748978037660615,0.24137321570673073,0.3165117990436745,0.6196872032414484,0.36739000724931525,0.44622972388785204,0.40831901473951765],[0.480507519247444,0.5448662046049706,0.2836151109460782,0.5086686220361775,0.711888390953999,0.06747324986827855,0.6592601551540521,0.3010697756783316,0.5720980295681302,0.4170856161665504,0.28811241832185946,0.8192180298759392,0.3623810987709938,0.4582797494646223,0.6633893188694128,0.42557523596328484,0.5569064239831291,0.8628566881807127,0.37332906482121053,0.5848966301994947,0.6782503577618367,0.7863129267472667,0.6210598272356022,0.2103093815382397,0.443851004182901,0.23873886282013296,0.48509977753202915,0.47383954036082077,0.3464478221235868,0.4917885507972649,0.05165717696022523,0.6167027785819049,0.01833205303670283,0.8037318189623263,0.337385519868558,0.07333815113518842,0.5056469869610413,0.4356788844448892,0.7098999228499354,0.4579333000193494,0.5957072967524754,0.5198208663506695,0.43114352686995583,0.1147046723171101,0.3606446613603343,0.26980450231926467,0,0.5267681268787676,0.5935621532096867,0.7872757767041015,0.7996040118750888,0.7406691005292149,0.41533508434975047,0.5751250454235963,0.34767169646628937,0.2476221524357299,0.4740012171324284,0.22817021913161012,0.311191344900888,0.3565360348059071,0.03150680389950238,0.45944013506629416,0.2823266809458741,0.29144757042911745,0.6331672867725442,0.4189491913856876,0.6018947484625237,0.753061144610457,0.3314969115309847,0.90625867671615,0.36654149397085317,0.8632574002435448,0.8698920009914807,0.7078040694417841,0.7265711702605684,0.36053833852943523,0.07945201967451919,0.4921625384187908,0.3071811135563144,0.4471263325756795,0.7018982507423098,0.6383943730418554,0.6517226307502703,0.09887571478659568,0.10079296012725344,0.6145561028253296,0.8913370993045545,0.4119280011784632,0.7147672803528331,0.7039523856206322],[0.40774330565276967,0.12698088657100443,0.3596038119705356,0.25695947965667537,0.15836646040072774,0.445004636683861,0.2527654835017436,0.45634909117603456,0.09684397158418413,0.3642698415999258,0.37968129624929925,0.28053765968831756,0.411990625867254,0.2714838549564902,0.36470262004716814,0.4130642996459464,0.21868910309265915,0.35005093287318095,0.36543453096000134,0.3350330784923152,0.18283926816287116,0.26679083504537426,0.09261568809517101,0.5226898081302858,0.5835957457932096,0.5505775190825432,0.11336391052356698,0.48202284335646095,0.16430695990612815,0.06143172260660009,0.4618245710072722,0.06269531563216307,0.535026706133765,0.24802118368717763,0.3305039656323081,0.6213028644289912,0.17190373135184533,0.0692538682666373,0.35772004982324573,0.042886839875641736,0.09013032339202855,0.049282543942185314,0.5066475002670251,0.42705442665183163,0.4953145701384459,0.28517183186329526,0.5267681268787676,0,0.20758204803627495,0.236945057705224,0.24971619744158866,0.346137140060915,0.4270712462940634,0.030971942378394995,0.5150282356157934,0.475675937328376,0.21877580338105257,0.40682551747493456,0.4327411194484948,0.19882776717338993,0.5396130400270538,0.3949378287812329,0.2535050136926904,0.5596545746328575,0.21814343339017409,0.21599869977122257,0.15029940545073225,0.21826135037370126,0.26253830983865345,0.3505322664160762,0.30961832477932333,0.3127750805564591,0.33440459610969897,0.43856210085252745,0.22082302144902335,0.4338296360491163,0.4183220030156022,0.32130950988924306,0.20439603097062733,0.3283595747592223,0.15284826019094844,0.09571732487196144,0.30719936713444496,0.4723117215187856,0.5426564159242322,0.27930603966791356,0.3413669476983824,0.2952077011533573,0.16797066087640572,0.24790485897205108],[0.24776631342015293,0.05427765073093685,0.5368109320744381,0.0882611671790557,0.23140706832670166,0.49795888582927467,0.03759086532294784,0.6362761828056821,0.08592201877145361,0.24079381798775482,0.3291743280311879,0.2561374530856546,0.610368310478027,0.1391728820737112,0.12889693237419336,0.2817249018947327,0.01698380018834942,0.2594115018960638,0.56868875029405,0.11749603980412872,0.10239070016478619,0.20129918762348714,0.2968738362333234,0.4916471311903284,0.45628586815991273,0.5078376531797129,0.10294998925480771,0.33009832849566423,0.24300814035994311,0.1380286514058976,0.5524090171587115,0.19824115881105264,0.5833552803194798,0.3238361077481242,0.5245720053656271,0.66773