"trial_id","rt","stimulus","response","trial_type","trial_index","plugin_version","time_elapsed","participant_number","success","raw_payload","placements","dissimilarity_vector","n_words","trial_category","distance_matrix","value"
"consent_form","11936","
    <div style=""max-width:800px; margin:0 auto; text-align:left; font-size: 16px; padding: 10px 0;"">
      <h1>Informed Consent Form</h1>
      <p>You are being invited to participate in a research study titled <strong>""Reproducibility of Psychological Science and Instruction.""</strong> This study is being done by Dr. Bria Long from UC San Diego and associated graduate students in the Experimental Methods course. You were selected to participate in this study because you are an adult in the U.S. and have been a represented population in previous psychology studies.</p>
      
      <p>The purpose of this study is to better understand how well previously published studies in the psychological field replicate online and with different populations. Your participation in this research should last approximately <strong>5-30 minutes</strong>. If you agree to take part in this study, you may be asked to view a set of stimuli, including pictures, sounds, written text, or videos and then giving some responses via key-presses, verbally, or with paper-and-pencil. We may also observe your choices or preferences among an array of stimuli. These stimuli will be taken directly from or closely adapted from studies that already exist in the published psychological literature. Stimuli will include, e.g., pictures of objects and human faces, audio and video clips, short text passages, etc. None of the stimuli will be disturbing, threatening, or offensive. The online and in-person experiments described in this protocol will take no more than 30 minutes. An example game you might play would be to click on an image on the screen that matches a word you hear being said out loud. Your total expected time commitment for this study is between 5-30 minutes, and is specified in the study description.</p>
      
      <p>Your participation in this study is completely voluntary and you can withdraw at any time. Choosing not to participate or withdrawing will result in no penalty or loss of benefits to which you are entitled. You are free to skip any question that you choose.</p>
      
      <p>We will not be asking for any personally identifying information, and we will handle responses as confidentially as possible. Your SONA or Prolific IDs will never be tied to your responses on this survey. However, we cannot guarantee the confidentiality of information transmitted over the Internet. To minimize this risk, data containing anything that might be personally identifying (e.g. Prolific IDs or IP addresses) will be encrypted on transfer and storage and will only be accessible to qualified lab personnel. We will be keeping data collected as part of this experiment indefinitely. This anonymized data (containing neither Prolific IDs nor IP addresses) may be shared with the scientific community or with other participants to be used as stimuli in future studies.</p>
      
      <p>If you have questions about this project or if you have a research-related problem, you may contact the researcher(s), <strong>Dr. Bria Long, <a href=""mailto:brlong@ucsd.edu"">brlong@ucsd.edu</a></strong>. If you have any questions concerning your rights as a research subject, you may contact the UC San Diego Office of IRB Administration at <a href=""mailto:irb@ucsd.edu"">irb@ucsd.edu</a> or 858-246-4777.</p>
      
      <h3 style=""margin-top: 25px;"">Consent Statement</h3>
      <p style=""font-weight: bold;"">By participating in this research you are indicating that you are at least 18 years old, have read this consent form, and agree to participate in this research study. Please keep this consent form for your records.</p>
    </div>
  ","0","html-button-response","0","2.1.0","11939","hx6bn4b9ju_f3v7k5","","","","","","","",""
"","72597","","{""participant_date"":""11/25/2025"",""participant_time"":""2:20pm""}","survey-html-form","1","2.1.0","84537","hx6bn4b9ju_f3v7k5","","","","","","","",""
"","13444","
    <div style=""display:flex; align-items:center; justify-content:center; height:100vh; font-family:sans-serif;"">
      <div style=""max-width:900px; margin:0 auto; text-align:center;"">
        <h1 style= ""font-size: 24px;"">Welcome! Thank you for participating in the study.</h1>
        <h2 style= ""font-size: 22px;"">The study will be in Madarin Chinese.</h2>
        <h2 style= ""font-size: 22px;"">Please use desktop computers or laptops for the study. Tablets and phones are not allowed.</h2>
        <p style=""font-size:16px; margin-top:30px;""><em>Press any key to continue.</em></p>
      </div>
    </div>
  ","Enter","html-keyboard-response","2","2.1.0","97982","hx6bn4b9ju_f3v7k5","","","","","","","",""
"","40054","
    <div style=""display:flex; align-items:center; justify-content:center; height:100vh; font-family:sans-serif;"">
      <div style=""max-width:900px; margin:0 auto; text-align:center;"">
        <p style=""font-size:18px; line-height:1.6;"">
          In this task, you will be presented with <strong>90 words</strong> arranged <strong>outside a circle</strong>.<br>
          Your job is to <strong>drag these words into the circle</strong> and <strong>rearrange them</strong> based on their <strong>meaning similarity</strong>.<br><br>
          Words that are <strong>similar in meaning</strong> should be placed <strong>closer together</strong>.<br>
          Words that are <strong>different in meaning</strong> should be placed <strong>farther apart</strong>.<br><br>
          You can place the words <strong>anywhere inside the circle</strong>. There is no single correct answer — 
          we are interested in <strong>your personal judgment</strong> of how these words relate to each other.<br><br>
          <strong>You must move all words into the circle before you can finish.</strong><br>
          After the initial arrangement, you will arrange words from specific categories.
        </p>
        <p style=""font-size:16px; margin-top:30px;""><em>Press any key to continue.</em></p>
      </div>
    </div>
  ","Enter","html-keyboard-response","3","2.1.0","138037","hx6bn4b9ju_f3v7k5","","","","","","","",""
"","7449","","","fullscreen","4","2.1.0","146488","hx6bn4b9ju_f3v7k5","true","{""placements"":[{""word"":""骄傲"",""x"":157.2,""y"":482.8,""cx"":176.5,""cy"":500.2,""angle_rad"":2.428,""angle_deg"":139.1},{""word"":""冰箱"",""x"":260.2,""y"":354.8,""cx"":279.5,""cy"":372.2,""angle_rad"":2.836,""angle_deg"":162.5},{""word"":""兔子"",""x"":387.2,""y"":212.8,""cx"":406.5,""cy"":230.2,""angle_rad"":-1.13,""angle_deg"":295.3},{""word"":""反感"",""x"":92.2,""y"":486.8,""cx"":111.5,""cy"":504.2,""angle_rad"":2.568,""angle_deg"":147.1},{""word"":""协议"",""x"":568.2,""y"":465.8,""cx"":587.5,""cy"":483.2,""angle_rad"":0.511,""angle_deg"":29.3},{""word"":""嘴唇"",""x"":340.2,""y"":574.8,""cx"":359.5,""cy"":592.2,""angle_rad"":1.532,""angle_deg"":87.8},{""word"":""剪刀"",""x"":194.2,""y"":343.8,""cx"":213.5,""cy"":361.2,""angle_rad"":3.06,""angle_deg"":175.3},{""word"":""长颈鹿"",""x"":374.1,""y"":275.8,""cx"":400.5,""cy"":293.2,""angle_rad"":-0.844,""angle_deg"":311.6},{""word"":""制度"",""x"":333.2,""y"":84.8,""cx"":352.5,""cy"":102.2,""angle_rad"":-1.561,""angle_deg"":270.6},{""word"":""过失"",""x"":523.2,""y"":370.8,""cx"":542.5,""cy"":388.2,""angle_rad"":0.196,""angle_deg"":11.2},{""word"":""友情"",""x"":408.2,""y"":448.8,""cx"":427.5,""cy"":466.2,""angle_rad"":0.983,""angle_deg"":56.3},{""word"":""方法"",""x"":565.2,""y"":414.8,""cx"":584.5,""cy"":432.2,""angle_rad"":0.337,""angle_deg"":19.3},{""word"":""蚂蚁"",""x"":420.2,""y"":272.8,""cx"":439.5,""cy"":290.2,""angle_rad"":-0.589,""angle_deg"":326.3},{""word"":""沮丧"",""x"":164.2,""y"":435.8,""cx"":183.5,""cy"":453.2,""angle_rad"":2.587,""angle_deg"":148.2},{""word"":""沙发"",""x"":248.2,""y"":322.8,""cx"":267.5,""cy"":340.2,""angle_rad"":-3.023,""angle_deg"":186.8},{""word"":""暴力"",""x"":87.2,""y"":532.8,""cx"":106.5,""cy"":550.2,""angle_rad"":2.453,""angle_deg"":140.6},{""word"":""筷子"",""x"":226.2,""y"":288.8,""cx"":245.5,""cy"":306.2,""angle_rad"":-2.745,""angle_deg"":202.7},{""word"":""概念"",""x"":576.2,""y"":269.8,""cx"":595.5,""cy"":287.2,""angle_rad"":-0.25,""angle_deg"":345.7},{""word"":""麻雀"",""x"":377.2,""y"":241.8,""cx"":396.5,""cy"":259.2,""angle_rad"":-1.097,""angle_deg"":297.1},{""word"":""椅子"",""x"":188.2,""y"":278.8,""cx"":207.5,""cy"":296.2,""angle_rad"":-2.781,""angle_deg"":200.7},{""word"":""买卖"",""x"":392.2,""y"":368.8,""cx"":411.5,""cy"":386.2,""angle_rad"":0.532,""angle_deg"":30.5},{""word"":""魔力"",""x"":432.2,""y"":480.8,""cx"":451.5,""cy"":498.2,""angle_rad"":0.97,""angle_deg"":55.6},{""word"":""结果"",""x"":597.2,""y"":412.8,""cx"":616.5,""cy"":430.2,""angle_rad"":0.292,""angle_deg"":16.7},{""word"":""敌意"",""x"":356.2,""y"":439.8,""cx"":375.5,""cy"":457.2,""angle_rad"":1.337,""angle_deg"":76.6},{""word"":""纠纷"",""x"":423.2,""y"":412.8,""cx"":442.5,""cy"":430.2,""angle_rad"":0.714,""angle_deg"":40.9},{""word"":""关系"",""x"":380.2,""y"":413.8,""cx"":399.5,""cy"":431.2,""angle_rad"":1.023,""angle_deg"":58.6},{""word"":""铅笔"",""x"":268.2,""y"":402.8,""cx"":287.5,""cy"":420.2,""angle_rad"":2.298,""angle_deg"":131.7},{""word"":""愤怒"",""x"":124.2,""y"":444.8,""cx"":143.5,""cy"":462.2,""angle_rad"":2.644,""angle_deg"":151.5},{""word"":""团队"",""x"":349.2,""y"":393.8,""cx"":368.5,""cy"":411.2,""angle_rad"":1.277,""angle_deg"":73.2},{""word"":""洗衣机"",""x"":180.1,""y"":319.8,""cx"":206.5,""cy"":337.2,""angle_rad"":-3.053,""angle_deg"":185.1},{""word"":""大腿"",""x"":305.2,""y"":603.8,""cx"":324.5,""cy"":621.2,""angle_rad"":1.665,""angle_deg"":95.4},{""word"":""慈善"",""x"":376.2,""y"":101.8,""cx"":395.5,""cy"":119.2,""angle_rad"":-1.376,""angle_deg"":281.2},{""word"":""手指"",""x"":226.2,""y"":594.8,""cx"":245.5,""cy"":612.2,""angle_rad"":1.95,""angle_deg"":111.7},{""word"":""性质"",""x"":549.2,""y"":232.8,""cx"":568.5,""cy"":250.2,""angle_rad"":-0.428,""angle_deg"":335.5},{""word"":""猫"",""x"":354.4,""y"":255.8,""cx"":366.5,""cy"":273.2,""angle_rad"":-1.359,""angle_deg"":282.1},{""word"":""眼睛"",""x"":267.2,""y"":591.8,""cx"":286.5,""cy"":609.2,""angle_rad"":1.811,""angle_deg"":103.8},{""word"":""床"",""x"":157.4,""y"":306.8,""cx"":169.5,""cy"":324.2,""angle_rad"":-3,""angle_deg"":188.1},{""word"":""鼠标"",""x"":149.2,""y"":274.8,""cx"":168.5,""cy"":292.2,""angle_rad"":-2.833,""angle_deg"":197.7},{""word"":""微波炉"",""x"":69.1,""y"":313.8,""cx"":95.5,""cy"":331.2,""angle_rad"":-3.068,""angle_deg"":184.2},{""word"":""原因"",""x"":590.2,""y"":374.8,""cx"":609.5,""cy"":392.2,""angle_rad"":0.161,""angle_deg"":9.2},{""word"":""锤子"",""x"":113.2,""y"":299.8,""cx"":132.5,""cy"":317.2,""angle_rad"":-2.992,""angle_deg"":188.6},{""word"":""勺子"",""x"":33.2,""y"":277.8,""cx"":52.5,""cy"":295.2,""angle_rad"":-2.959,""angle_deg"":190.4},{""word"":""缘分"",""x"":214.2,""y"":187.8,""cx"":233.5,""cy"":205.2,""angle_rad"":-2.248,""angle_deg"":231.2},{""word"":""胳膊"",""x"":285.2,""y"":548.8,""cx"":304.5,""cy"":566.2,""angle_rad"":1.778,""angle_deg"":101.9},{""word"":""老鼠"",""x"":317.2,""y"":238.8,""cx"":336.5,""cy"":256.2,""angle_rad"":-1.714,""angle_deg"":261.8},{""word"":""兴奋"",""x"":90.2,""y"":391.8,""cx"":109.5,""cy"":409.2,""angle_rad"":2.9,""angle_deg"":166.2},{""word"":""耳朵"",""x"":234.2,""y"":548.8,""cx"":253.5,""cy"":566.2,""angle_rad"":1.991,""angle_deg"":114.1},{""word"":""社会"",""x"":110.2,""y"":126.8,""cx"":129.5,""cy"":144.2,""angle_rad"":-2.391,""angle_deg"":223},{""word"":""牙刷"",""x"":56.2,""y"":234.8,""cx"":75.5,""cy"":252.2,""angle_rad"":-2.799,""angle_deg"":199.6},{""word"":""过程"",""x"":631.2,""y"":374.8,""cx"":650.5,""cy"":392.2,""angle_rad"":0.14,""angle_deg"":8},{""word"":""光彩"",""x"":114.2,""y"":175.8,""cx"":133.5,""cy"":193.2,""angle_rad"":-2.515,""angle_deg"":215.9},{""word"":""空调"",""x"":73.2,""y"":263.8,""cx"":92.5,""cy"":281.2,""angle_rad"":-2.881,""angle_deg"":195},{""word"":""乌龟"",""x"":342.2,""y"":221.8,""cx"":361.5,""cy"":239.2,""angle_rad"":-1.467,""angle_deg"":275.9},{""word"":""地位"",""x"":157.2,""y"":177.8,""cx"":176.5,""cy"":195.2,""angle_rad"":-2.413,""angle_deg"":221.7},{""word"":""创伤"",""x"":57.2,""y"":391.8,""cx"":76.5,""cy"":409.2,""angle_rad"":2.928,""angle_deg"":167.8},{""word"":""死亡"",""x"":128.2,""y"":408.8,""cx"":147.5,""cy"":426.2,""angle_rad"":2.782,""angle_deg"":159.4},{""word"":""快乐"",""x"":77.2,""y"":428.8,""cx"":96.5,""cy"":446.2,""angle_rad"":2.779,""angle_deg"":159.2},{""word"":""身份"",""x"":194.2,""y"":145.8,""cx"":213.5,""cy"":163.2,""angle_rad"":-2.202,""angle_deg"":233.8},{""word"":""婚姻"",""x"":154.2,""y"":134.8,""cx"":173.5,""cy"":152.2,""angle_rad"":-2.299,""angle_deg"":228.3},{""word"":""错误"",""x"":526.2,""y"":400.8,""cx"":545.5,""cy"":418.2,""angle_rad"":0.336,""angle_deg"":19.2},{""word"":""脚踝"",""x"":303.2,""y"":513.8,""cx"":322.5,""cy"":531.2,""angle_rad"":1.721,""angle_deg"":98.6},{""word"":""老虎"",""x"":366.2,""y"":200.8,""cx"":385.5,""cy"":218.2,""angle_rad"":-1.308,""angle_deg"":285.1},{""word"":""冷漠"",""x"":35.2,""y"":426.8,""cx"":54.5,""cy"":444.2,""angle_rad"":2.833,""angle_deg"":162.3},{""word"":""疾病"",""x"":211.2,""y"":96.8,""cx"":230.5,""cy"":114.2,""angle_rad"":-2.04,""angle_deg"":243.1},{""word"":""扫帚"",""x"":157.2,""y"":250.8,""cx"":176.5,""cy"":268.2,""angle_rad"":-2.701,""angle_deg"":205.2},{""word"":""难过"",""x"":65.2,""y"":460.8,""cx"":84.5,""cy"":478.2,""angle_rad"":2.692,""angle_deg"":154.2},{""word"":""钥匙"",""x"":184.2,""y"":248.8,""cx"":203.5,""cy"":266.2,""angle_rad"":-2.622,""angle_deg"":209.8},{""word"":""天堂"",""x"":170.2,""y"":106.8,""cx"":189.5,""cy"":124.2,""angle_rad"":-2.189,""angle_deg"":234.6},{""word"":""义务"",""x"":325.2,""y"":42.8,""cx"":344.5,""cy"":60.2,""angle_rad"":-1.59,""angle_deg"":268.9},{""word"":""数据"",""x"":540.2,""y"":159.8,""cx"":559.5,""cy"":177.2,""angle_rad"":-0.69,""angle_deg"":320.5},{""word"":""爱心"",""x"":419.2,""y"":68.8,""cx"":438.5,""cy"":86.2,""angle_rad"":-1.247,""angle_deg"":288.5},{""word"":""内容"",""x"":563.2,""y"":175.8,""cx"":582.5,""cy"":193.2,""angle_rad"":-0.593,""angle_deg"":326},{""word"":""现象"",""x"":543.2,""y"":204.8,""cx"":562.5,""cy"":222.2,""angle_rad"":-0.541,""angle_deg"":329},{""word"":""柜子"",""x"":108.2,""y"":246.8,""cx"":127.5,""cy"":264.2,""angle_rad"":-2.774,""angle_deg"":201.1},{""word"":""奇迹"",""x"":587.2,""y"":224.8,""cx"":606.5,""cy"":242.2,""angle_rad"":-0.398,""angle_deg"":337.2},{""word"":""恐惧"",""x"":203.2,""y"":435.8,""cx"":222.5,""cy"":453.2,""angle_rad"":2.461,""angle_deg"":141},{""word"":""膝盖"",""x"":379.2,""y"":560.8,""cx"":398.5,""cy"":578.2,""angle_rad"":1.361,""angle_deg"":78},{""word"":""舒心"",""x"":193.2,""y"":467.8,""cx"":212.5,""cy"":485.2,""angle_rad"":2.365,""angle_deg"":135.5},{""word"":""债务"",""x"":437.2,""y"":367.8,""cx"":456.5,""cy"":385.2,""angle_rad"":0.319,""angle_deg"":18.3},{""word"":""大象"",""x"":417.2,""y"":224.8,""cx"":436.5,""cy"":242.2,""angle_rad"":-0.895,""angle_deg"":308.7},{""word"":""作用"",""x"":557.2,""y"":346.8,""cx"":576.5,""cy"":364.2,""angle_rad"":0.063,""angle_deg"":3.6},{""word"":""纪律"",""x"":363.2,""y"":52.8,""cx"":382.5,""cy"":70.2,""angle_rad"":-1.455,""angle_deg"":276.6},{""word"":""电视"",""x"":284.2,""y"":309.8,""cx"":303.5,""cy"":327.2,""angle_rad"":-2.686,""angle_deg"":206.1},{""word"":""肩膀"",""x"":357.2,""y"":608.8,""cx"":376.5,""cy"":626.2,""angle_rad"":1.475,""angle_deg"":84.5},{""word"":""鼻子"",""x"":325.2,""y"":550.8,""cx"":344.5,""cy"":568.2,""angle_rad"":1.596,""angle_deg"":91.4},{""word"":""斧头"",""x"":224.2,""y"":354.8,""cx"":243.5,""cy"":372.2,""angle_rad"":2.936,""angle_deg"":168.2},{""word"":""风景"",""x"":618.2,""y"":180.8,""cx"":637.5,""cy"":198.2,""angle_rad"":-0.486,""angle_deg"":332.2},{""word"":""熊猫"",""x"":430.2,""y"":243.8,""cx"":449.5,""cy"":261.2,""angle_rad"":-0.729,""angle_deg"":318.3},{""word"":""骗局"",""x"":449.2,""y"":449.8,""cx"":468.5,""cy"":467.2,""angle_rad"":0.78,""angle_deg"":44.7},{""word"":""桌子"",""x"":249.2,""y"":373.8,""cx"":268.5,""cy"":391.2,""angle_rad"":2.673,""angle_deg"":153.2}],""n_words"":90,""words"":[""骄傲"",""冰箱"",""兔子"",""反感"",""协议"",""嘴唇"",""剪刀"",""长颈鹿"",""制度"",""过失"",""友情"",""方法"",""蚂蚁"",""沮丧"",""沙发"",""暴力"",""筷子"",""概念"",""麻雀"",""椅子"",""买卖"",""魔力"",""结果"",""敌意"",""纠纷"",""关系"",""铅笔"",""愤怒"",""团队"",""洗衣机"",""大腿"",""慈善"",""手指"",""性质"",""猫"",""眼睛"",""床"",""鼠标"",""微波炉"",""原因"",""锤子"",""勺子"",""缘分"",""胳膊"",""老鼠"",""兴奋"",""耳朵"",""社会"",""牙刷"",""过程"",""光彩"",""空调"",""乌龟"",""地位"",""创伤"",""死亡"",""快乐"",""身份"",""婚姻"",""错误"",""脚踝"",""老虎"",""冷漠"",""疾病"",""扫帚"",""难过"",""钥匙"",""天堂"",""义务"",""数据"",""爱心"",""内容"",""现象"",""柜子"",""奇迹"",""恐惧"",""膝盖"",""舒心"",""债务"",""大象"",""作用"",""纪律"",""电视"",""肩膀"",""鼻子"",""斧头"",""风景"",""熊猫"",""骗局"",""桌子""],""distance_matrix"":[[0,0.23140325525514113,0.5409155915030381,0.07017883102999063,0.6330413489175962,0.29729087618345357,0.19814917772190474,0.4601461671043241,0.6717763278664823,0.586549270062661,0.37608515904727324,0.6367421189346025,0.5114443823935723,0.041559181528205036,0.26354727489838536,0.10415636900074234,0.29904825944143976,0.7284380218074576,0.4947967007165279,0.2997580893125395,0.38892682972236897,0.41138708610218333,0.6886108470387924,0.2952886936089228,0.41146688380421725,0.3437965620003296,0.18674412825359132,0.04612820344467375,0.3083461879688516,0.23374796377055618,0.27508898024131806,0.6787316408500222,0.17816656952856197,0.7201510163650711,0.4455505939746574,0.2160607968210282,0.25065749445384,0.30270359196981805,0.2689782762422824,0.6898012273907635,0.2702896573076927,0.3538013049577632,0.4527595204369983,0.19843155982646327,0.4386556577274493,0.14801957410237482,0.12917866559619073,0.548078685397751,0.39963430680911594,0.7546380957527951,0.4682694069096831,0.3456272548517591,0.4843944328957334,0.4601461671043241,0.1841146335061037,0.09351830406354537,0.1212199678358503,0.5154606192141773,0.5300721511917618,0.5788241841250115,0.2069517188252413,0.5349374832048843,0.18253989454311206,0.5979384396055747,0.34147030047247107,0.11808959211879705,0.3472456564978019,0.5759358804254686,0.7299824973921277,0.7788103217421202,0.7608005370155948,0.791794702734279,0.737634686498864,0.35615553302414055,0.7795335896590395,0.07122215701835925,0.34684169799799464,0.027710817459489754,0.45640091502038155,0.5597754395479926,0.6511458212036111,0.7394370591296862,0.3132015082635745,0.34859255670413536,0.25895021060264567,0.1991810436025065,0.8602504897820726,0.5541700505355621,0.4420339695440933,0.196191368961509],[0.23140325525514113,0,0.2740156169504214,0.31164514625759887,0.49654747473281413,0.3448745066754654,0.07308464573545796,0.1992316741731046,0.4190070579111662,0.3926573842895655,0.24933923969778096,0.4696493742285071,0.25659066255165575,0.16850677396433045,0.019868480435971343,0.3678385511585239,0.08500499754192015,0.49628920038418506,0.22874310690181346,0.13450287074103587,0.1801042016103222,0.3109291605093256,0.5202232646981473,0.17275949021733064,0.24557298263986171,0.18169658523278992,0.043418462935503,0.229431830464011,0.12227752604976849,0.09591981828812944,0.3756645479852089,0.41678127255160086,0.3583716453117237,0.47428275901097716,0.1785678332221064,0.3497668051168768,0.1594193515821387,0.18674412825359132,0.2707729717670931,0.5017729548831376,0.21946536774037492,0.353994642817897,0.24591105215049847,0.2823017520571755,0.1744264163749514,0.2471471832001184,0.2825136159378395,0.4079898631714075,0.3490736764221595,0.5683179067352491,0.3398305281085129,0.3023988618193792,0.21831824020261392,0.29723134313398736,0.29976202861636003,0.19616287338821234,0.28521394372016173,0.3206182147472461,0.36131165693087813,0.40316247550760503,0.2320802020530226,0.2682400400371726,0.3483620933109473,0.3912359374222684,0.2022664541606412,0.32512910858951793,0.1763483702780573,0.3932092392814221,0.48241645345107553,0.5190144014442303,0.4962792642512323,0.5364292049297564,0.4850114864181011,0.2674389818457094,0.5363806985060272,0.12532650400304476,0.3510639274973263,0.17787595535161643,0.25283204194801323,0.29568371753019457,0.44731572017027804,0.48303840735974973,0.047219179097602586,0.40632182105251996,0.30001011156558205,0.022833727049961547,0.611409489598803,0.2943731398346589,0.30819635670131157,0],[0.5409155915030381,0.2740156169504214,0,0.6188429249875588,0.47002840106943344,0.5577503275127277,0.34351788531882055,0.0671909770328582,0.19015765995513445,0.30321866495280153,0.3494890171693445,0.40200467509511234,0.07563030067282309,0.4770040323564974,0.2524791640526286,0.67739493035246,0.25374203234548787,0.2852345323899667,0.014178067440125359,0.3051510103112672,0.21804757416058787,0.40609455260463695,0.43576071505668307,0.33676709771359514,0.2946732731095004,0.29127179660017616,0.3287730424655636,0.5344463286287425,0.26497466237865774,0.33305523878668525,0.6137841795881426,0.14564490043123096,0.6382281095221406,0.22967096748345947,0.059782868713325256,0.6105941778234636,0.3787975692267785,0.36413752568231184,0.49589409606491414,0.3865299888672099,0.43166466485501914,0.5494262592925476,0.24847560712066744,0.5351574389453866,0.08570367982043958,0.5280528518857465,0.5645078878163999,0.4358307829879492,0.5036015501165935,0.4404463453503591,0.4121814728536141,0.4814667891568507,0.03891377963884472,0.34252343089758325,0.5746295192160045,0.4923398689040921,0.5785467218116932,0.2964365494557923,0.36375726681365106,0.344405454921546,0.4723408439605629,0.003629002078994396,0.6340089103653097,0.30698763585877703,0.34328782278971504,0.6250459039533656,0.2994743377615286,0.35692367603123576,0.25848340872639985,0.22754103477219803,0.20411958535099414,0.2566855908687459,0.21825060073819055,0.4212335691229858,0.29003272784019457,0.43431499173336857,0.5302005992571109,0.48519417671185244,0.22907771093446147,0.01683651340483207,0.31621098417311283,0.22733010732268713,0.19432032431473162,0.6099293158738217,0.5229620280911265,0.31574879756707064,0.34343075684693475,0.050485908101525354,0.36256454394080606,0.30903687300771904],[0.07017883102999063,0.31164514625759887,0.6188429249875588,0,0.7388930344978393,0.3921109952823747,0.24986264425689025,0.5460310275169216,0.7262819426575776,0.689917790524976,0.481729908330107,0.7421208948758896,0.6009926162566386,0.1077481743303632,0.33227677308032894,0.03953116333259981,0.3529827959961285,0.8266101636574495,0.5752981887236034,0.33673161703186866,0.48838851230984703,0.5171316148172107,0.7940528875876876,0.4002409904909496,0.5156979310750157,0.44731572017027804,0.2813486965855762,0.050147896484953304,0.4086267763371409,0.2766540358882143,0.35938306965671213,0.7420665273607238,0.24409857161715592,0.8142931426142607,0.5236664765208348,0.2960862370579438,0.27175021607809724,0.3211963028772507,0.24675445559979928,0.7941277360924451,0.2702248697115601,0.3173581892261167,0.48929796930945796,0.29386028104680684,0.5086840857022275,0.11878405984178066,0.21620247973656997,0.5502905981838538,0.37814348626009564,0.8592765113358911,0.4711637809748865,0.3281525164848714,0.5565734376220725,0.4776428411692615,0.12889789902237472,0.10396725772171517,0.06170131410857173,0.5429402449656363,0.5453627910456245,0.6835798163419706,0.3101276364628929,0.6081995141917985,0.09884917233572241,0.6271883825314678,0.36225916347444564,0.02524517128422925,0.3791258167572272,0.5949532910346115,0.779470369862593,0.8659960651702036,0.8270820331070767,0.8818730021215384,0.8290280650528551,0.3553419519519304,0.8747990009408851,0.16289667301960287,0.4461433445705437,0.13138408974071097,0.557601116642755,0.6429645299866639,0.7537765368947774,0.7961143276325704,0.38883968258704743,0.4385804346431305,0.35712556927421335,0.2677875278269029,0.9535982444144282,0.6410614429287399,0.5477911323339948,0.2787790884525594],[0.6330413489175962,0.49654747473281413,0.47002840106943344,0.7388930344978393,0,0.3751470239500543,0.6038504087426309,0.39769940832988954,0.6920436040196725,0.1352002322131299,0.22588421762316555,0.04736249906103312,0.35970069799944876,0.6228984621083048,0.5341124727527251,0.7538183818525233,0.5903454629256673,0.28321052499079397,0.44287413090040073,0.6528233867880194,0.29100898881615617,0.18674412825359132,0.0625254881951339,0.3115386036495905,0.215288008906386,0.2814153786884168,0.46265564916744634,0.6869249279119103,0.3390837669028819,0.6276188369072454,0.4471515400080303,0.6333376898116735,0.5585336258387319,0.34435330232515793,0.45992225009956433,0.49478673662827427,0.6913514425413883,0.7129098054433531,0.8014525251916841,0.11650894335144078,0.7516915233161865,0.8861934100077277,0.6960528142481217,0.4437596769217007,0.5144815264897047,0.7506486238398971,0.5238058426681811,0.8906491684936652,0.8774598014150318,0.14424030603680224,0.8400991376647783,0.8334545638361617,0.5049891016335805,0.780183334715921,0.8037051937637314,0.6855924090951555,0.7647889377959867,0.7645016443943431,0.8260153629296901,0.0901190899692069,0.40212844041158546,0.5060073078649145,0.833121533544174,0.798989574090364,0.7183691387559052,0.782074533155206,0.6813588870267874,0.8356654468879855,0.7573721321739876,0.46385011473905724,0.6536692648404795,0.4358307829879492,0.3905575395298307,0.7925544970426732,0.3573172717890549,0.5596888854312883,0.30819635670131157,0.573953613647944,0.23027283787559422,0.4266529259037876,0.1585913133881774,0.713883573038865,0.49107454549707513,0.3786859696136382,0.3828237532281852,0.5519412580227722,0.4347084436615359,0.3892596916339266,0.1595073780740732,0.5040424291230838],[0.29729087618345357,0.3448745066754654,0.5577503275127277,0.3921109952823747,0.3751470239500543,0,0.4085643159185305,0.4549405975878107,0.7609813563852932,0.40983558929968833,0.19707300144577666,0.4131452466552316,0.47220296669144646,0.3289035449405225,0.4004319210587147,0.3812388644448187,0.46483320493595803,0.5912482388639942,0.5089971369477523,0.505252993629633,0.30970704822195705,0.17813567190109547,0.4581914780561681,0.185313736786247,0.26022565338375386,0.234002873308775,0.2674389818457095,0.37415193283620357,0.25892329982958784,0.44775599473671895,0.03820188227327257,0.7354871842516475,0.1524685627459882,0.6158967631514457,0.48303076491350316,0.08616001290560664,0.4983791156737687,0.5424741739810242,0.5678276429472869,0.4847855722923125,0.5440103302896141,0.6587267014556961,0.6259592522979767,0.06320928037808513,0.5118210247559323,0.4679835148573096,0.14174062014930378,0.7829950899712343,0.6845051699337582,0.5383453831562071,0.7097876832135728,0.6306658774118046,0.5381888243296197,0.6749780529998167,0.5121901724934497,0.4020409027123649,0.45333002236721454,0.701014812474167,0.7409018099617115,0.3783733306788847,0.08029273840710147,0.5737866882971544,0.5154390403416526,0.7691927547548997,0.5692448182094503,0.4482668667634659,0.5518400550831014,0.7737750615288082,0.8295230529965196,0.713232770865115,0.7968765286596337,0.707396138819143,0.6504008459121818,0.6174423226268906,0.6607238333833457,0.28159035253064246,0.03167215076296729,0.2598905441337615,0.3359430735723367,0.546909476430258,0.4760107531991107,0.8137457226425769,0.4046324551666213,0.02610650770162143,0.010319021038446384,0.36863352359770163,0.7482249674463314,0.5219510827448522,0.2339293664441221,0.3230023494215262],[0.19814917772190474,0.07308464573545796,0.34351788531882055,0.24986264425689025,0.6038504087426309,0.4085643159185305,0,0.28778962699448907,0.4421694901470782,0.5009609818729295,0.35182852309230944,0.578387500798786,0.3494203967072034,0.12162368546461916,0.05850090323913189,0.317388131516654,0.06775457969783258,0.5968697542131307,0.304902792081635,0.07042817237603739,0.28875227302993434,0.4107481910096623,0.628997996138225,0.27044077504408687,0.3531255646881347,0.28739313143519274,0.11816690999468278,0.1640842245713524,0.22907771093446147,0.0049510622150247905,0.4238980451368004,0.45657006364753333,0.3756613355596937,0.5689848143149288,0.2512475819054454,0.3845850675706023,0.05776853603031472,0.09822896244021635,0.16224348692294832,0.6100541575315974,0.11416402957463374,0.2471845573922229,0.2199930753948969,0.3289361632611914,0.22721955398037916,0.1505201295837459,0.3038614074486991,0.34259330246454955,0.25019564116561455,0.676523424415388,0.2668105870532532,0.20012435515518592,0.2761205098481642,0.24079660936504976,0.20030360604373754,0.11490293124562874,0.19941160567447555,0.28619660916448475,0.3102460735166401,0.5119368625983463,0.29260683128557846,0.3279454391818073,0.25589357724667466,0.3668056944177928,0.12702456938398535,0.24743203680187012,0.11960311120871699,0.3515692759333268,0.4979781302176477,0.6013909898748572,0.5419459631268592,0.6234379833179399,0.5750212882364846,0.17505438482304972,0.6318546698089441,0.11458670397133189,0.42788599841449404,0.165901600851922,0.3612750411739637,0.37522742757174393,0.5544567346105791,0.5113791679684685,0.12071385537115233,0.4700911091492315,0.362554589575609,0.016254679403829436,0.7027848819900886,0.38099474430056723,0.4132512237651031,0.06615825492938038],[0.4601461671043241,0.1992316741731046,0.0671909770328582,0.5460310275169216,0.39769940832988954,0.4549405975878107,0.28778962699448907,0,0.28447186983019995,0.24205550351836985,0.24895882140621575,0.3391965808951701,0.027898121191997177,0.4026110927079893,0.1936298734408827,0.5991323155022816,0.21717636047697558,0.28146954757387077,0.0199635358319035,0.2781060277070073,0.11655234854303068,0.3077349274105123,0.38013442839885736,0.23400287330877492,0.1972602730340341,0.1886606911024076,0.240667535587729,0.46435247218357034,0.163069606997612,0.2877038289786694,0.511664121934937,0.2472966503525078,0.5408835059629103,0.24622996777932862,0.02843614785004581,0.5104363131958266,0.3432111042378612,0.3414738041131009,0.46397971841031055,0.3402701403061381,0.4017389142248315,0.5300604726488227,0.2711866354581625,0.4347646242184694,0.084489316013988,0.47358784388757724,0.46837428075373977,0.46707229888493973,0.49684780935810957,0.40143974011487804,0.42781472947656707,0.46540314642315905,0.07259762290152105,0.361790679377968,0.5237751378550033,0.42897931589427146,0.5175832081086347,0.3345572969366919,0.3987379019065788,0.27553512239261374,0.37147348582047646,0.08865053797432583,0.5780323322366624,0.3656319100028311,0.33072569927083056,0.5595912195243685,0.28756486962395733,0.40379435747278086,0.35388272206726057,0.28427369279461046,0.3064512016276998,0.30190602437330055,0.2518548412913114,0.41062089440384597,0.30931275986047974,0.3534041525839783,0.42764363929897076,0.4011585111314079,0.13940154636631977,0.06579431946771905,0.2728357439961851,0.3280181113111244,0.13140781587004954,0.5070698645296776,0.4205505372305218,0.2500338161420787,0.37939968866553087,0.05945010827058364,0.2680138682108513,0.23157636093237569],[0.6717763278664823,0.4190070579111662,0.19015765995513445,0.7262819426575776,0.6920436040196725,0.7609813563852932,0.4421694901470782,0.28447186983019995,0,0.5225076843608351,0.5684929045339825,0.6200994990086178,0.3010791020686563,0.5976255349526657,0.37515988958691626,0.7951971730708726,0.33880158323951876,0.46080932773530636,0.22937699784477864,0.35805294484114925,0.43586441189685843,0.6278976859732889,0.6488022916266242,0.542640997439278,0.5172463401171484,0.5045930219647956,0.4919693557655347,0.6410380110122648,0.4673219313308998,0.4140746377677765,0.8092722774154258,0.039478443418731635,0.811465158158396,0.38998051690766905,0.24323292532326393,0.7954913449798717,0.4320264437044348,0.3942923854861881,0.5239121155505787,0.5942509450513871,0.4643921104891153,0.5442268448225998,0.22016873608224688,0.7226574305294989,0.21601355145977863,0.6008224015428094,0.7356105492427549,0.3332128840547948,0.4764134569165265,0.6403014447112421,0.34984907421918965,0.4774754883379829,0.18750917597661185,0.28792032308723714,0.6354379475503178,0.5876123297398749,0.6614122841469083,0.21108277690005586,0.26644779352284875,0.5662666527912326,0.6634357673552567,0.1603719901745629,0.7017516631509966,0.16360077033073606,0.3576197697314432,0.7149511458860361,0.3245279850869501,0.23169993923262364,0.03381549859760381,0.322235247051445,0.10651762572490595,0.366421386219444,0.35751224156933636,0.415037295294509,0.43580555973222646,0.5728080631046542,0.7417453416820904,0.6272441979402175,0.454463642277283,0.22973071807347953,0.5246908342061025,0.03561727095730675,0.33866394158109303,0.8170668116392726,0.7219949800235607,0.4376656587909622,0.45321111007722903,0.26709876321832204,0.5869335389638696,0.45357856376623956],[0.586549270062661,0.3926573842895655,0.30321866495280153,0.689917790524976,0.1352002322131299,0.40983558929968833,0.5009609818729295,0.24205550351836985,0.5225076843608351,0,0.19021031291497056,0.06319591813547298,0.19543790793196336,0.5574229052410784,0.4181343600935542,0.7204586559144233,0.46520532356801403,0.1497378743162535,0.28103593708893143,0.5290809526988024,0.17729974170408747,0.1963964338086434,0.102636239866531,0.25806085341194257,0.14063492800264987,0.20706605882441745,0.3821127205518728,0.6240231351668322,0.24964043041528797,0.5167992550886246,0.48303840735974984,0.4626583008168266,0.5690700379895217,0.19260185861455806,0.306095688594336,0.5141139172047366,0.5795548806280686,0.5920297347966038,0.6968794421846752,0.07342426833936756,0.640764578680464,0.7751207464201519,0.5481352736476355,0.44746616964279906,0.36205655368010053,0.6690627380544658,0.5161004085595098,0.7441433845696529,0.7550476340465458,0.14000427759538195,0.7009233270421859,0.716268543405954,0.34543660679904997,0.6369720043467508,0.7226522029233255,0.6094235625215096,0.6954747030205165,0.6122788405000238,0.6763879671555364,0.01332279414434309,0.39087673776591175,0.34050556097340484,0.7628551481879322,0.6393546482179085,0.5904784298617197,0.7231173188412637,0.5500221803884994,0.6809164568261085,0.5871605919524646,0.3084421993417567,0.48356546450709653,0.28792032308723714,0.2361259254709092,0.668445578301344,0.22346327380543385,0.49515528333319236,0.3518796698042586,0.5234845396408114,0.10420360687638947,0.25761966886379345,0.031965760357020395,0.5430293040333719,0.3653057982503827,0.43604092433724456,0.39932761002522765,0.4510874392542334,0.3096496555926727,0.2202100504848973,0.14028234259439953,0.409776264805795],[0.37608515904727324,0.24933923969778096,0.3494890171693445,0.481729908330107,0.22588421762316555,0.19707300144577666,0.35182852309230944,0.24895882140621575,0.5684929045339825,0.19021031291497056,0,0.2254595160066233,0.25109556614553397,0.3615412606013472,0.2953924829007084,0.5037289521755363,0.358264322370215,0.3633998242316643,0.3045806143864836,0.41629913363930243,0.096939997696906,0.029336514262665824,0.2770894962145365,0.05010170081149404,0.027710817459489754,0.03717541235755957,0.2038770067450352,0.42605232624290684,0.09543698752152706,0.38031552820471315,0.2668542677525002,0.5308190771764877,0.3436224130673533,0.383653343196731,0.2933667027073963,0.2907864477609189,0.4430701404137077,0.47155991227926625,0.5469548383153644,0.2837073861846189,0.5015909828188664,0.6343363796382032,0.492990141592089,0.22201619968640157,0.33638017572974227,0.4895194264640403,0.29056780522645825,0.6775579875761226,0.6340089103653097,0.3462782060301559,0.6165454122426176,0.5864430765935155,0.3486235039442218,0.5648094418510821,0.542403316580133,0.4241251356072593,0.5033956831879187,0.5673632761783335,0.620880869171925,0.17140480452296816,0.1650673878026988,0.3732222889911343,0.571747375632976,0.6200773331899934,0.48403605361884805,0.5222637954062697,0.45249432124142286,0.6416762408303961,0.6379927681999267,0.480822476148105,0.5823322011876495,0.4746687018063226,0.4176449154956176,0.5522717328976748,0.43045292775013744,0.2982459187379599,0.15239129400188242,0.3151956296481114,0.10417526606546812,0.3287585393059745,0.25785835100179433,0.6122278544730906,0.26712931127157635,0.2373143995717259,0.17809240772050847,0.3002108064220747,0.5178196099331133,0.29949010803846887,0.030982033689010306,0.2501078046651046],[0.6367421189346025,0.4696493742285071,0.40200467509511234,0.7421208948758896,0.04736249906103312,0.4131452466552316,0.578387500798786,0.3391965808951701,0.6200994990086178,0.06319591813547298,0.2254595160066233,0,0.2942449998748839,0.6171063786790004,0.5009191196832533,0.7647196005541577,0.5522560002109814,0.20071201344616468,0.3796511095367628,0.6158562011418809,0.2553265335473609,0.2056849296270938,0.016432446856123696,0.3065014073821071,0.19518048418926495,0.2650669444662453,0.4475345402818667,0.682897891859424,0.3171148139135158,0.5979321830268406,0.4868658615805656,0.5587226198608342,0.588290382102213,0.26132660691166654,0.40296068354072234,0.5277785312029768,0.6614445089772508,0.6778691751721728,0.776054072969226,0.04099260697366194,0.7225337008494943,0.8573963929747768,0.6438615734434605,0.4689454601308884,0.45869156666361,0.7374193500801057,0.5448372084899267,0.8397263699693278,0.8420057698684544,0.08977199698843912,0.7940863313710164,0.8009740981209501,0.4437596769217007,0.7313774465533931,0.7910086352152897,0.6748051043077758,0.7579750868380126,0.7093000554486483,0.7727900713579782,0.03167215076296729,0.4196343646349058,0.43938220014100277,0.8261487688992845,0.7379080431862148,0.6791717261838123,0.7805897698159436,0.6399357942588297,0.7786010056387075,0.6840059205426049,0.38084883802673375,0.5748265173848978,0.3528637820138968,0.3075732806198159,0.7558627361147273,0.27525476490744427,0.5538002911466529,0.34871633071579505,0.5751748969773208,0.18598240141323163,0.3558417788176708,0.07561842952818393,0.6382339920022199,0.45197974868775226,0.4267043695756833,0.4127652896884562,0.5271872325806851,0.35435731649307023,0.3184942167853301,0.16128648225291903,0.4823348303375528],[0.5114443823935723,0.25659066255165575,0.07563030067282309,0.6009926162566386,0.35970069799944876,0.47220296669144646,0.3494203967072034,0.027898121191997177,0.3010791020686563,0.19543790793196336,0.25109556614553397,0.2942449998748839,0,0.4576882042162781,0.25550356969356053,0.6511323533741042,0.2807646288260462,0.21796423419626737,0.050485908101525354,0.3415964110373622,0.12687832245322997,0.30301585091771543,0.331187027560406,0.25505395975223166,0.19195844312314372,0.20257723458771665,0.2894642593324647,0.5208575790984273,0.1923817945816208,0.35072552147155805,0.533966349280786,0.2513580882568972,0.5754495656111304,0.18387402701795266,0.08616001290560664,0.539469970197939,0.4067132860293981,0.40488447339536127,0.5275064232342851,0.2866068772030203,0.46532402665419825,0.5935058123603365,0.326591080366279,0.4637998512063998,0.1406424221602012,0.5346039148551546,0.5053800068355668,0.5213702038100332,0.5592781366805719,0.3453082989792214,0.48616744480888757,0.5286151436485834,0.11581276908441972,0.4189053294920464,0.5853375880700264,0.48797483003217895,0.5768857803478163,0.38575309742251174,0.4514754827641174,0.23448751704550072,0.3998315717038022,0.11062135442146927,0.6384163234238054,0.4085048216401162,0.3933601819845321,0.617363411567966,0.34995188591678794,0.45216939119470456,0.3688589717436187,0.23227259682792095,0.29595477451059315,0.24522039426090353,0.19279279489782486,0.47328416924463096,0.24679188175207734,0.40552287431838807,0.4372299615555552,0.4508077476274708,0.12120312372376266,0.04249434921637401,0.2174427377727978,0.3337712661734444,0.1934396347014415,0.5200616007893001,0.44191224480556984,0.30970704822195694,0.31924706649864726,0.014178067440125359,0.25589357724667466,0.287172190962039],[0.041559181528205036,0.16850677396433045,0.4770040323564974,0.1077481743303632,0.6228984621083048,0.3289035449405225,0.12162368546461916,0.4026110927079893,0.5976255349526657,0.5574229052410784,0.3615412606013472,0.6171063786790004,0.4576882042162781,0,0.19320883031895078,0.16564579293063408,0.2236722510129006,0.6864182016295854,0.43268145561501486,0.2225079888969773,0.35064001852553806,0.40609455260463695,0.6692277226284274,0.27651015836384724,0.3870210732053568,0.3172758348302045,0.14168847918362656,0.030962211065841894,0.27271579454910655,0.1565606069904942,0.32087031711092906,0.6074356124934237,0.2417508415967576,0.6718771846942604,0.3816063602289702,0.26820960363413343,0.17525493990816624,0.2271793412374329,0.2088558095472488,0.6639194747292934,0.20043795491210328,0.29797276260405386,0.37559386882778667,0.23345844712800534,0.36981491333746774,0.10426971311784751,0.18040404954562667,0.47426202898782394,0.3352561759470625,0.7299583349860916,0.39473470514710945,0.2806518631466337,0.41682507788905726,0.3838927671395549,0.1523912940018823,0.03746499827854617,0.10620133662775608,0.4382766348817954,0.4539133547194746,0.5555551474858831,0.22342757792620613,0.46808844821665424,0.17453330335052172,0.5206913493864124,0.2652777687007893,0.13030494371913406,0.2700477135680495,0.4992518268843369,0.6547419021902843,0.7225737845059277,0.6908223396004148,0.738524449666339,0.68587266193151,0.2847689055922819,0.7327836202053207,0.027710817459489754,0.36861391346998085,0.034515408396241426,0.4216845048102514,0.4998764362600909,0.6193857863440616,0.6659809274349501,0.2471798858882591,0.385668430036028,0.2859584139253973,0.12818178290006274,0.8108284962918816,0.49762640118375245,0.4281909057486694,0.1353470894831125],[0.26354727489838536,0.019868480435971343,0.2524791640526286,0.33227677308032894,0.5341124727527251,0.4004319210587147,0.05850090323913189,0.1936298734408827,0.37515988958691626,0.4181343600935542,0.2953924829007084,0.5009191196832533,0.25550356969356053,0.19320883031895078,0,0.3944920999788965,0.030144344890323724,0.504453591525997,0.21193807496635822,0.08526747633413767,0.2100632442706017,0.3585862035543554,0.5502387287004844,0.22316225443465929,0.28422412935382274,0.22495301655026753,0.09836703483010101,0.24710513132993656,0.165014722863265,0.06359600315174736,0.4304330834390105,0.3794983656383438,0.40794220675655096,0.4750491783682301,0.15864571906587577,0.4027105736447177,0.12573632360676648,0.14317223432349022,0.24431102550689837,0.5266869596328416,0.18694008838188028,0.32140729394642864,0.19063109561252045,0.3366074080175619,0.14103168042644942,0.24459404685614375,0.3324203928238815,0.35400142486060104,0.307665659532944,0.592663064488445,0.2876752245812707,0.26453923619508113,0.18861356574370533,0.2426116014249235,0.29445720465457437,0.20431787639400903,0.2913809008339104,0.2651504133919086,0.306014487029967,0.4337044894877244,0.2874340297592549,0.24023685359912184,0.3496536564224559,0.3366074080175618,0.15295252658649264,0.33691962614662885,0.12336128750042723,0.3376530188918458,0.4364021486505038,0.5079650852041879,0.4620931805829863,0.5294201194945345,0.48083270961617836,0.22327964258251565,0.5379861553663399,0.1620431006351644,0.40596292268175105,0.2164227171202582,0.28015437909943613,0.2819025660516486,0.4681618885653006,0.4414028775919684,0.02653270492832686,0.46188076304834663,0.35553452844858185,0.029336514262665824,0.6085934316624803,0.28685688445513485,0.35083493764317325,0.0472351157699193],[0.10415636900074234,0.3678385511585239,0.67739493035246,0.03953116333259981,0.7538183818525233,0.3812388644448187,0.317388131516654,0.5991323155022816,0.7951971730708726,0.7204586559144233,0.5037289521755363,0.7647196005541577,0.6511323533741042,0.16564579293063408,0.3944920999788965,0,0.42082850401349026,0.866958401262451,0.632193088180612,0.4086832805795147,0.527281130970783,0.5315091080015844,0.8160558647977908,0.4270186232959247,0.5443339326550958,0.47842481430553996,0.32659108036627904,0.11950096618402395,0.44647233558635496,0.346845152442156,0.3370330951685807,0.8079215455412877,0.21174055008309223,0.8598359405733637,0.5819215343625659,0.27225269473193653,0.3457242754366751,0.3956792552620761,0.3207850671471392,0.8214271220528556,0.3454470082427024,0.38805455185347876,0.5619683848115392,0.28724585458180873,0.5711444802305033,0.19358376945342345,0.20469747703839242,0.6253998012819052,0.4513805356529906,0.8852339549381739,0.5463398841722895,0.40221294296525467,0.6181258195212197,0.552543617124414,0.1986628592557809,0.1766286279236572,0.13416089642261758,0.6170577941640698,0.6204399524572817,0.709553661705594,0.3168150443993315,0.6693158235723274,0.15625104999862005,0.7012210614745206,0.43666798993412087,0.08670104820445103,0.45219376845466847,0.6698779108159443,0.8498941990441337,0.9182727346606875,0.8918395494391667,0.931598240025384,0.8774815080513632,0.43050962112749863,0.919001079529777,0.2101331365249492,0.4411895570067193,0.16645147226334092,0.5933608813035423,0.6981518525642428,0.7860432999973029,0.8644456728300735,0.44804018266918955,0.4203042793753194,0.35232947016006727,0.3294685167197122,1,0.6934658272360174,0.5680815792500887,0.333327492858762],[0.29904825944143976,0.08500499754192015,0.25374203234548787,0.3529827959961285,0.5903454629256673,0.46483320493595803,0.06775457969783258,0.21717636047697558,0.33880158323951876,0.46520532356801403,0.358264322370215,0.5522560002109814,0.2807646288260462,0.2236722510129006,0.030144344890323724,0.42082850401349026,0,0.5341403015466051,0.22140528018711686,0.028188390945422234,0.26387829362741977,0.42210901850227855,0.6002387592064642,0.2882305149624119,0.34273300689561786,0.286758544075608,0.16181575039972504,0.2673168960332164,0.22721955398037916,0.04530032823930164,0.492262282950461,0.35403194259224147,0.4617718639075003,0.4972422066174079,0.1682023919364173,0.4613838829811723,0.09127962143690682,0.09153954183032557,0.21152683213524784,0.5723540197922682,0.1488807238153704,0.27857732158391296,0.129658870564977,0.39773599579896035,0.13310733325446183,0.24165556611336395,0.3871898493866201,0.28822643541891674,0.2542848330371914,0.637396201909152,0.22295797423687835,0.21633883985769065,0.18208527717747483,0.17678416688477483,0.28605699885980956,0.21618149470403467,0.29668711450847973,0.2025328622064106,0.2406770986755548,0.48489727242786157,0.350916979450134,0.23313421156887246,0.3473836642559041,0.27739353599867134,0.09236774194813933,0.34731466659285887,0.05859905671983506,0.27387478187925013,0.3954003990393813,0.516177037657835,0.4400826366120412,0.5421472432435517,0.49744053515922493,0.16793000600445412,0.5603366263903857,0.20619353406167915,0.47165368754928455,0.2602122563003351,0.33058502281814467,0.29178467396022095,0.5106129200564895,0.4079332706088215,0.0645892325543849,0.526435480803504,0.4196343646349058,0.07165388338057085,0.6253258384080256,0.30392366929621645,0.4114491522122362,0.10746230015131727],[0.7284380218074576,0.49628920038418506,0.2852345323899667,0.8266101636574495,0.28321052499079397,0.5912482388639942,0.5968697542131307,0.28146954757387077,0.46080932773530636,0.1497378743162535,0.3633998242316643,0.20071201344616468,0.21796423419626737,0.6864182016295854,0.504453591525997,0.866958401262451,0.5341403015466051,0,0.29100898881615617,0.5952486715270416,0.30398591973132016,0.37960020114607673,0.19927666996590138,0.41629913363930243,0.3047669711923396,0.3596973558720255,0.5097123540399157,0.7522753465905534,0.3848113910723039,0.6019072599468623,0.6635416069357942,0.3889361658546356,0.7407809875010928,0.038771944648389414,0.33728827425461577,0.689823084404926,0.6594627542409555,0.6585287661164015,0.7802983229464784,0.13651743913975453,0.7185846579580917,0.8471578063983769,0.5677203446456192,0.6196923344555141,0.38836940181788204,0.7789109041431307,0.6818378785597576,0.7567503757830102,0.8115836991785693,0.15700686695045968,0.7307690850203616,0.7820923080926455,0.35264265927756,0.6617022540149292,0.8310429124266054,0.7268713565014071,0.8157175810550003,0.6172237763312676,0.684602409863465,0.19226008910326645,0.5595557006760699,0.3236611890497413,0.8800969987542617,0.6209653947084075,0.6461755730270807,0.8511735576144134,0.6024955882744689,0.675548671097357,0.5144815264897047,0.1524685627459882,0.3789410103071042,0.11857861754623657,0.08281736742360984,0.7260529884984089,0.03961894784280292,0.6280330846777866,0.5355970963663798,0.6652328667056724,0.24079660936504976,0.2329473529676032,0.09324187564405502,0.45863275896863415,0.4434453713544474,0.6204177981404468,0.5768361629769613,0.5530017161390618,0.12429736229543303,0.2053945998106497,0.32243824641574825,0.5221501019937709],[0.4947967007165279,0.22874310690181346,0.014178067440125359,0.5752981887236034,0.44287413090040073,0.5089971369477523,0.304902792081635,0.0199635358319035,0.22937699784477864,0.28103593708893143,0.3045806143864836,0.3796511095367628,0.050485908101525354,0.43268145561501486,0.21193807496635822,0.632193088180612,0.22140528018711686,0.29100898881615617,0,0.27739775669461253,0.1722072343089314,0.3630056043831532,0.4172949884336377,0.2880019813476718,0.25218553376776587,0.2439710218127848,0.28038858677555456,0.4916411843761625,0.21557216636830864,0.2982063447387213,0.5643383347162424,0.19191200056622906,0.5884788344952585,0.24431102550689837,0.018128782836471773,0.5607422150524548,0.3481728035318194,0.33882981117338623,0.46744801430962846,0.3725430890708907,0.4037282029238342,0.5266023624878527,0.243460239795999,0.48532607986275794,0.06197230147699486,0.4907658972498595,0.5148848931804658,0.4369197016351329,0.4862813808700199,0.43041890841380287,0.4051243568031901,0.4598129205279545,0.029842575374575284,0.3367883845003633,0.5388493047283812,0.4517195475497058,0.5390079829992956,0.3002619447590211,0.36641152733334564,0.31855390679201456,0.42257062726726,0.03331942355949999,0.5964288132285154,0.32263006732092175,0.3222610897278108,0.5840062662866968,0.27827442816217457,0.3660696030494029,0.2986848755991061,0.26093928782376413,0.2537237692592626,0.28516040699568673,0.24079660936504976,0.4016966191979754,0.30682177832895435,0.38796410615070354,0.48291611470507667,0.438087009752083,0.1911851008238457,0.03496569692191928,0.3030821688648902,0.272407138679978,0.15160274306330446,0.5618246504226074,0.4737123759869847,0.273524550342026,0.36845699819333055,0.05053189792920484,0.3221392436275506,0.2632247312990031],[0.2997580893125395,0.13450287074103587,0.3051510103112672,0.33673161703186866,0.6528233867880194,0.505252993629633,0.07042817237603739,0.2781060277070073,0.35805294484114925,0.5290809526988024,0.41629913363930243,0.6158562011418809,0.3415964110373622,0.2225079888969773,0.08526747633413767,0.4086832805795147,0.028188390945422234,0.5952486715270416,0.27739775669461253,0,0.3267916403653623,0.4792723226202572,0.6639950237997533,0.34259330246454955,0.4040919297954694,0.3458766865138967,0.20420773493795033,0.2535365061357264,0.2859584139253973,0.030982033689010306,0.5258545342023971,0.38408168958038985,0.48172990833010704,0.5559305109209132,0.22548481519523877,0.4891091536533298,0.0410442866143733,0.028043421317260155,0.15507015222047618,0.6362152473824192,0.090925273434469,0.21629689075658087,0.11816690999468278,0.43071366022600005,0.18387402701795266,0.20747397707176526,0.4095715346281376,0.24205074574591642,0.19050844818281976,0.7012085088374946,0.17049032704448708,0.15284742273334298,0.23126468989401536,0.13606410565848923,0.24555888759151012,0.19707300144577658,0.2676699383285171,0.1807462242443303,0.20484585334939565,0.5484927845922706,0.38963889859688666,0.280246409963914,0.31036828860363186,0.2625387217652136,0.03221919519823826,0.3214183952863632,0.013511155565374921,0.24545550231173793,0.4079332706088215,0.5683704113980732,0.4718307713401617,0.5965228785751555,0.553836156756677,0.10438296552018042,0.6188752267318973,0.22070530405684288,0.5180129545351914,0.2716728387599215,0.39418788248400916,0.34680369705313424,0.5742916600510501,0.4289878473101217,0.1283107534193976,0.567047653206405,0.459420735566004,0.10102191419762856,0.6812833245369954,0.361820599114514,0.47157293765899083,0.147846859305214],[0.38892682972236897,0.1801042016103222,0.21804757416058787,0.48838851230984703,0.29100898881615617,0.30970704822195705,0.28875227302993434,0.11655234854303068,0.43586441189685843,0.17729974170408747,0.096939997696906,0.2553265335473609,0.12687832245322997,0.35064001852553806,0.2100632442706017,0.527281130970783,0.26387829362741977,0.30398591973132016,0.1722072343089314,0.3267916403653623,0,0.15765040564211397,0.3051665179489373,0.09372268518136488,0.05180979988623463,0.04002144566259329,0.1733355759616401,0.4171753680478883,0.045169696402494616,0.306964497767098,0.3716876311363294,0.399148350428324,0.42017675246734953,0.3019882138981825,0.1620431006351644,0.3799087375694803,0.3704336045575811,0.387879880721584,0.48575200047078565,0.28634436587046647,0.43154306691398936,0.5663917687285569,0.37700835406609834,0.3047320370620423,0.20829859973465303,0.45669084851928204,0.3536757535597066,0.568420724084566,0.5523796028394022,0.35297259622564703,0.5144887320596199,0.5102765920661252,0.2167317736450269,0.45661838115228315,0.5101991346964002,0.3983909986927779,0.4856100656004787,0.44911803240652204,0.5069115878320666,0.18827751055122183,0.24089695843743938,0.2406770986755548,0.5522919600191558,0.49545391725556964,0.39180508333532255,0.5165504522434907,0.3546925742940711,0.5225834339937289,0.5053629106407227,0.3806425789420936,0.45398892099827015,0.38350520995736065,0.32672236855033804,0.46680413441208846,0.3583884118810982,0.29030037631673017,0.2771570861462466,0.32564512869008394,0.03748305934687293,0.20191077877921268,0.23492246599925826,0.48018760466704996,0.16437505736254865,0.35860296100007444,0.27959743859922287,0.23837238750201187,0.44221926357435243,0.1767033008400765,0.12532650400304476,0.19692534794708014],[0.41138708610218333,0.3109291605093256,0.40609455260463695,0.5171316148172107,0.18674412825359132,0.17813567190109547,0.4107481910096623,0.3077349274105123,0.6278976859732889,0.1963964338086434,0.029336514262665824,0.2056849296270938,0.30301585091771543,0.40609455260463695,0.3585862035543554,0.5315091080015844,0.42210901850227855,0.37960020114607673,0.3630056043831532,0.4792723226202572,0.15765040564211397,0,0.254435177741979,0.104693938533803,0.07582006711533834,0.10218651729874927,0.25954162701597183,0.4684319520684197,0.15978474043385216,0.44090682947850035,0.2517307335209143,0.5871372538737053,0.3470627195711733,0.4100965232828871,0.35532167522444624,0.28759757131625036,0.5030008850026302,0.5333605808853874,0.6035714058501004,0.2736185538261789,0.5605693749319901,0.6920871827032049,0.5580174771336556,0.2276163250554608,0.3998892168763595,0.5388148036527018,0.30465051014662137,0.7422686873508179,0.6947731294536167,0.3308555065378121,0.6806287306578698,0.6462685897630016,0.41006095037038354,0.6295226380119144,0.5908792703804823,0.4721925593407581,0.5475895342875619,0.6323671781916016,0.685868999197877,0.1649752150880597,0.18077674925429926,0.43197841106743334,0.6156533532045219,0.684580394425285,0.5471271812796751,0.5618246504226074,0.5163948935266385,0.7066666708441962,0.6973032234641857,0.5149016937129787,0.6344290677736809,0.5039469359047803,0.44792816698242577,0.6140425267310109,0.45082676088870605,0.3437129804884434,0.12031625378565164,0.35342452923308054,0.14819212667513534,0.3812008291500177,0.2622195219452907,0.6690908631555799,0.3319642064245382,0.20548776254142093,0.17217545087902086,0.3596572481392063,0.5381496779490138,0.3496125032044801,0.02178570381957759,0.3089333584976636],[0.6886108470387924,0.5202232646981473,0.43576071505668307,0.7940528875876876,0.0625254881951339,0.4581914780561681,0.628997996138225,0.38013442839885736,0.6488022916266242,0.102636239866531,0.2770894962145365,0.016432446856123696,0.331187027560406,0.6692277226284274,0.5502387287004844,0.8160558647977908,0.6002387592064642,0.19927666996590138,0.4172949884336377,0.6639950237997533,0.3051665179489373,0.254435177741979,0,0.3585526865260789,0.2471798858882591,0.3170885942501118,0.4994098997264003,0.7350209605230508,0.36866293700608255,0.6477764040327073,0.5315463830521608,0.584554051738242,0.6361070696561122,0.26715985624350397,0.44423074931952033,0.5746295192160045,0.711147808409137,0.7263911919846272,0.8264523055345857,0.027124523193794468,0.7723061210481803,0.9071020659187364,0.6864438208756609,0.5176190330592548,0.5002365515202188,0.7892436521710747,0.5944942340479863,0.8824532056031594,0.8901925689550814,0.04720323936142491,0.8389546741774677,0.8499434393167864,0.48225574568003865,0.7752446002122093,0.842848491251269,0.7267881727568137,0.8100710566376169,0.7502082092697218,0.814554286987758,0.08137010098104314,0.46968075275642335,0.4740235731247119,0.8782336860503916,0.7752885963479198,0.726557637040544,0.8326925119021304,0.6867200849979167,0.8183257176693308,0.7108628832826978,0.3859192469205866,0.593980280515859,0.35354337175901657,0.31366328233190155,0.8038311267021938,0.2703717019085261,0.6059236168526636,0.3926666391137958,0.6271485115047983,0.2345119709419992,0.38743976442956307,0.08977199698843912,0.6623291622579135,0.4999948570300792,0.4680543472724464,0.4601541622700444,0.5779806542307943,0.3430122611461551,0.35056133909853293,0.21231666862040727,0.5335927522286865],[0.2952886936089228,0.17275949021733064,0.33676709771359514,0.4002409904909496,0.3115386036495905,0.185313736786247,0.27044077504408687,0.23400287330877492,0.542640997439278,0.25806085341194257,0.05010170081149404,0.3065014073821071,0.25505395975223166,0.27651015836384724,0.22316225443465929,0.4270186232959247,0.2882305149624119,0.41629913363930243,0.2880019813476718,0.34259330246454955,0.09372268518136488,0.104693938533803,0.3585526865260789,0,0.08174202972271967,0.02183166709096444,0.11950096618402385,0.3415578817263712,0.03995159988801511,0.30126739540983,0.2435170394976844,0.5147552718368297,0.29318594018604077,0.4244066870107836,0.26379447015273527,0.2506574944538401,0.36293599570458673,0.3946548755071675,0.46346904388740884,0.35912543603341973,0.42022602845582974,0.5517523317658052,0.4345482922504919,0.17578674077018697,0.297167829478428,0.4037282029238342,0.23027283787559422,0.6115013776031029,0.5550095519923,0.4236938553871738,0.546526027391856,0.5060951208302704,0.3194406110912365,0.4991727729445876,0.4566156969708713,0.3383779086159676,0.41823043898304796,0.5100199724203758,0.5590315512608995,0.24785645046089022,0.11228277651110895,0.35319013330616866,0.48658508885076035,0.5697011934218595,0.41047875296795205,0.43861665465441896,0.3821633228354873,0.5843899800226294,0.611674908247804,0.508992284813197,0.5760762993996323,0.509692970695047,0.4525430420970723,0.47518370086931727,0.47733383945638264,0.21312524225596804,0.1645401150716954,0.23317844853264777,0.14049247844258733,0.32762914627441825,0.3243555268628492,0.5935562153380055,0.20589834571775747,0.2390562115841344,0.1516662313952291,0.2195430402342659,0.5632295536591534,0.30489891223644466,0.11636996347886254,0.16868789246455973],[0.41146688380421725,0.24557298263986171,0.2946732731095004,0.5156979310750157,0.215288008906386,0.26022565338375386,0.3531255646881347,0.1972602730340341,0.5172463401171484,0.14063492800264987,0.027710817459489754,0.19518048418926495,0.19195844312314372,0.3870210732053568,0.28422412935382274,0.5443339326550958,0.34273300689561786,0.3047669711923396,0.25218553376776587,0.4040919297954694,0.05180979988623463,0.07582006711533834,0.2471798858882591,0.08174202972271967,0,0.03423250556818268,0.21681552038361745,0.4531678620730804,0.08851230347262501,0.376688034464958,0.32929477239493393,0.47564132951549537,0.4003258588430299,0.32150349409682816,0.24787509143180808,0.35031151121061316,0.44040471339768067,0.4630558885661678,0.5509352008435678,0.24273977398292593,0.5007122232625986,0.6352410199329871,0.46354845763502806,0.2792913308638573,0.29553613746053,0.5067410843546958,0.3428447333172607,0.6535829983115321,0.6274116159775434,0.30805030444260884,0.5973917986298528,0.58271695365851,0.301584902055992,0.5413302510604076,0.560292283029296,0.44393328373932506,0.5274008287091386,0.5361519699452366,0.5931928034837242,0.1328879920001576,0.21929440496989466,0.3211963028772507,0.595489482346626,0.5829284655167346,0.47062903407941825,0.5515160884663528,0.4355280148099735,0.6097839779629182,0.5865577647572768,0.4174612374806003,0.5235861480527256,0.4118006975656393,0.3546925742940711,0.5431594426385095,0.36988659958170134,0.323911158117063,0.21531959784319435,0.348761017093558,0.04092364655967928,0.2700952533392805,0.20714225558062976,0.5576322981347226,0.24555888759151012,0.30052538053511285,0.23946953228193044,0.3012830817723577,0.4570020685321598,0.23928697881410693,0.03782537659810678,0.25419823556381343],[0.3437965620003296,0.18169658523278992,0.29127179660017616,0.44731572017027804,0.2814153786884168,0.234002873308775,0.28739313143519274,0.1886606911024076,0.5045930219647956,0.20706605882441745,0.03717541235755957,0.2650669444662453,0.20257723458771665,0.3172758348302045,0.22495301655026753,0.47842481430553996,0.286758544075608,0.3596973558720255,0.2439710218127848,0.3458766865138967,0.04002144566259329,0.10218651729874927,0.3170885942501118,0.02183166709096444,0.03423250556818268,0,0.14726274311187207,0.38352727567210565,0.024283415336204883,0.31330375681140876,0.29638482202455885,0.4715677275472368,0.35065370026851755,0.36688448152260894,0.22671141587736457,0.307068606879358,0.37670085202603193,0.4025899877882421,0.48457225998457404,0.3115424093056482,0.4362789714247618,0.5702052081970271,0.4201767524673494,0.2326717452479926,0.2666795070946552,0.4371153847567063,0.28757713314623384,0.6049012601805108,0.5660734402619537,0.3772548308392825,0.5445708227162359,0.5197857125905574,0.28249700426108765,0.49215965175454257,0.4906253145079205,0.37406486832345337,0.4574980044317832,0.49464472802936105,0.5480153000448701,0.20259941767988388,0.169488066876274,0.3113292282940226,0.5255720759040864,0.548316319200173,0.4133601186209911,0.4820720185762012,0.3808202851687346,0.5689913704086448,0.574033808275094,0.4523318832607149,0.5287462644599723,0.45237791284406376,0.3951949719651346,0.4831912326464524,0.4199969948850387,0.25427116147130424,0.20329160171949684,0.28073539713832235,0.0833846907947561,0.27739775669461253,0.2719822312741809,0.5518355567700665,0.19440074195698856,0.2835170141368389,0.20430686452300886,0.2354493321776216,0.5057730703335356,0.25238284960638285,0.09083130931666689,0.18698163351170155],[0.18674412825359132,0.043418462935503,0.3287730424655636,0.2813486965855762,0.46265564916744634,0.2674389818457095,0.11816690999468278,0.240667535587729,0.4919693557655347,0.3821127205518728,0.2038770067450352,0.4475345402818667,0.2894642593324647,0.14168847918362656,0.09836703483010101,0.32659108036627904,0.16181575039972504,0.5097123540399157,0.28038858677555456,0.20420773493795033,0.1733355759616401,0.25954162701597183,0.4994098997264003,0.11950096618402385,0.21681552038361745,0.14726274311187207,0,0.20816316261203344,0.09680043817100582,0.15284742273334298,0.2965638442076785,0.48418858563489375,0.28382320928829613,0.4982232126702921,0.23561011498384477,0.2715696386909944,0.211606998009916,0.2484337518636243,0.3083461879688516,0.4897583947609123,0.26685426775250015,0.3970311436206518,0.3246893605439522,0.20326395285498783,0.24256886411914574,0.25423470081046584,0.20801138367559036,0.48132112196078736,0.40405286612686203,0.5561895515051671,0.41025063977965714,0.35361465986076596,0.2822020025495831,0.37218038665074366,0.3077964871305272,0.1921151168509961,0.27768041382502473,0.3990875676899375,0.4377745204527215,0.3837510194665283,0.15351907852452173,0.3293056338382317,0.34510014034584874,0.4703288066914388,0.2702896573076927,0.3075309319750639,0.2494875579581436,0.47120288664744125,0.556850038448566,0.557260240600565,0.560203586407719,0.5694392018839766,0.5151992182187058,0.3275927731222513,0.5581777092216457,0.08281736742360984,0.2782197079234098,0.1256544429616451,0.24488149255988154,0.3416839630235271,0.44287413090040073,0.5538899510808588,0.11771964664183705,0.3291209453232561,0.22213923493075355,0.07016634854584723,0.6381084879553443,0.33332749285876195,0.2683182910813687,0.020671341638219477],[0.04612820344467375,0.229431830464011,0.5344463286287425,0.050147896484953304,0.6869249279119103,0.37415193283620357,0.1640842245713524,0.46435247218357034,0.6410380110122648,0.6240231351668322,0.42605232624290684,0.682897891859424,0.5208575790984273,0.030962211065841894,0.24710513132993656,0.11950096618402395,0.2673168960332164,0.7522753465905534,0.4916411843761625,0.2535365061357264,0.4171753680478883,0.4684319520684197,0.7350209605230508,0.3415578817263712,0.4531678620730804,0.38352727567210565,0.20816316261203344,0,0.33936926155877556,0.19187135555374854,0.3559700098293563,0.6562388911743273,0.2592012593949827,0.7364187871488478,0.43952959989208745,0.2977073098767362,0.19260185861455806,0.24364952722080838,0.19112102212369683,0.7303827920229545,0.20071201344616468,0.2734903601707354,0.40699098616765306,0.27590429911995046,0.4232189790080412,0.06667591830370605,0.21040713753260132,0.4817809839203992,0.32315704610383233,0.7963557668344687,0.4019231519909136,0.27001745713723757,0.4712889085093451,0.40167244877482133,0.10318920924118893,0.023193884818015407,0.04502248287119477,0.46353522288769067,0.47062903407941825,0.6217417157457328,0.2761798355917121,0.5229904123059936,0.11192513457579743,0.547462650356602,0.28422412935382274,0.06368912456661753,0.29754079884851165,0.5188595338975133,0.694977523239486,0.7840871100552104,0.7412505581009091,0.8013167618034889,0.7493047552725535,0.28724585458180873,0.7976570612246732,0.09356942963905453,0.4197388317508315,0.08254944984211224,0.4883229503175077,0.5599640395582366,0.6860392966479018,0.7106876268713903,0.30463886185013533,0.42751813300572783,0.3337283436673122,0.18302377818022725,0.8748904317368503,0.5594935375911193,0.4927226262685948,0.19801351311819054],[0.3083461879688516,0.12227752604976849,0.26497466237865774,0.4086267763371409,0.3390837669028819,0.25892329982958784,0.22907771093446147,0.163069606997612,0.4673219313308998,0.24964043041528797,0.09543698752152706,0.3171148139135158,0.1923817945816208,0.27271579454910655,0.165014722863265,0.44647233558635496,0.22721955398037916,0.3848113910723039,0.21557216636830864,0.2859584139253973,0.045169696402494616,0.15978474043385216,0.36866293700608255,0.03995159988801511,0.08851230347262501,0.024283415336204883,0.09680043817100582,0.33936926155877556,0,0.25384702273581317,0.313118172471117,0.44103712671885165,0.3474009117299509,0.3817076814361251,0.18867836056010662,0.3127087803711228,0.31738813151665396,0.3426491904273771,0.4267872390107674,0.3573172717890549,0.3772868300170617,0.5115482263596958,0.3647088870216306,0.23692689608350465,0.2216056572973214,0.3853766676143568,0.27807233677008714,0.5468663793677221,0.5062536359796258,0.4237945236461736,0.485417377870498,0.4602820673934446,0.2441599637521686,0.4341322056208611,0.4390232434420558,0.3244142453179592,0.41014394941769655,0.439749224131464,0.4913604483322571,0.2522819142075247,0.1732344012539578,0.2792829401636938,0.4775887792980639,0.4967162786801594,0.3535026298382158,0.4386807294381275,0.32140729394642864,0.5141932262684998,0.5362605696565278,0.4553578898447455,0.5047764282659186,0.46093174242936197,0.40462045070061475,0.4232333764209257,0.43884784032423035,0.21128617838614325,0.24014584588019425,0.2450039209304144,0.11348348789426635,0.2604577732013935,0.310978717753494,0.5191382643577275,0.13697723560693614,0.314075335299966,0.22250798889697737,0.17718182875987185,0.5221145680500326,0.24144584475500636,0.15063363857779694,0.13009783658722676],[0.23374796377055618,0.09591981828812944,0.33305523878668525,0.2766540358882143,0.6276188369072454,0.44775599473671895,0.0049510622150247905,0.2877038289786694,0.4140746377677765,0.5167992550886246,0.38031552820471315,0.5979321830268406,0.35072552147155805,0.1565606069904942,0.06359600315174736,0.346845152442156,0.04530032823930164,0.6019072599468623,0.2982063447387213,0.030982033689010306,0.306964497767098,0.44090682947850035,0.6477764040327073,0.30126739540983,0.376688034464958,0.31330375681140876,0.15284742273334298,0.19187135555374854,0.25384702273581317,0,0.4642731861446406,0.4333580915858989,0.41584867284716004,0.5695680285618157,0.24445728890473775,0.4252273740888388,0.028064151446018332,0.06005928569757284,0.1450244215089351,0.6255377099464603,0.08892654696175585,0.22380977824572487,0.18334376240196332,0.3692507565142597,0.21331636197358006,0.16069523834025104,0.3443533023251581,0.3021173284640075,0.2181777380838423,0.6916349268777676,0.22677184021967794,0.1707913363895565,0.26243235979923224,0.20025320549559864,0.20589834571775747,0.13790078732935085,0.2160607968210281,0.24740869892978942,0.269809903745277,0.5309333632914218,0.3317736619368557,0.3137464881236901,0.2665002725328648,0.32893253914743564,0.08662544732871931,0.2674259035749294,0.07983610633387028,0.3116831892697415,0.46741649652720574,0.5943767959162817,0.5199664824010882,0.6188651326080286,0.5725039567395965,0.1391749865506197,0.6326756808592655,0.1546748917556376,0.4652369804746838,0.205109407713933,0.37815625874336667,0.3688589717436187,0.5674158639483684,0.48418858563489375,0.1228370052808444,0.5093924407082164,0.40175401860052323,0.04710753650416384,0.7005213740538662,0.3782233078143387,0.4397909134770284,0.09797216389078474],[0.27508898024131806,0.3756645479852089,0.6137841795881426,0.35938306965671213,0.4471515400080303,0.03820188227327257,0.4238980451368004,0.511664121934937,0.8092722774154258,0.48303840735974984,0.2668542677525002,0.4868658615805656,0.533966349280786,0.32087031711092906,0.4304330834390105,0.3370330951685807,0.492262282950461,0.6635416069357942,0.5643383347162424,0.5258545342023971,0.3716876311363294,0.2517307335209143,0.5315463830521608,0.2435170394976844,0.32929477239493393,0.29638482202455885,0.2965638442076785,0.3559700098293563,0.313118172471117,0.4642731861446406,0,0.7885305083158006,0.09356942963905453,0.6861930791688466,0.5341565343820931,0.029092200792281794,0.5089389084800509,0.5562431319555854,0.5650272589425235,0.5586692629314554,0.5488365128076543,0.654531337125554,0.6565902042997479,0.05945010827058364,0.558008574083015,0.4551748633702655,0.11031395544024795,0.8020616108054935,0.6879939239917577,0.6119749044529667,0.7262472570557517,0.6334640886504503,0.5882310819380788,0.6974600505741355,0.49471449139048784,0.39243829505405714,0.4315628640840629,0.7304328141458643,0.7653038265471216,0.4521531390113314,0.1106574765581228,0.6269271836998517,0.48915699337726304,0.8025835571467483,0.5865768773961743,0.4184836404474352,0.5740338082750941,0.8015567007684913,0.8769039357332391,0.7809862942607079,0.8535826254345805,0.7767472648389426,0.7195931002970701,0.6271824020303522,0.7322933869332675,0.283823209288296,0.10344587637632414,0.2507267082128137,0.40390860097212694,0.6067880500713237,0.5494533597812221,0.8650165627595676,0.44348122363185094,0.04923476927912028,0.05640117341587815,0.3899867256120222,0.8197681571113941,0.5838356505628725,0.3070647515502191,0.3491423587086863],[0.6787316408500222,0.41678127255160086,0.14564490043123096,0.7420665273607238,0.6333376898116735,0.7354871842516475,0.45657006364753333,0.2472966503525078,0.039478443418731635,0.4626583008168266,0.5308190771764877,0.5587226198608342,0.2513580882568972,0.6074356124934237,0.3794983656383438,0.8079215455412877,0.35403194259224147,0.3889361658546356,0.19191200056622906,0.38408168958038985,0.399148350428324,0.5871372538737053,0.584554051738242,0.5147552718368297,0.47564132951549537,0.4715677275472368,0.48418858563489375,0.6562388911743273,0.44103712671885165,0.4333580915858989,0.7885305083158006,0,0.8020537239264394,0.3170885942501118,0.21906627614088234,0.7803711944219752,0.4603486715832195,0.4282962943725232,0.5615038875079487,0.5282286282896699,0.49948891863906336,0.5910458601917478,0.2624811137432914,0.7059008481672536,0.2068046310360909,0.626460358392762,0.7267812403684566,0.3986496808740327,0.5276753333069756,0.571619011252776,0.4069044101959523,0.5228792325592448,0.1670715537618615,0.3411653590467877,0.6651725348466525,0.6058989016470953,0.6846409352612216,0.26870924456725853,0.3291788968818809,0.5081303451012935,0.6445282373781841,0.12607160093360953,0.7301240047467548,0.23267174524799253,0.39492500841251127,0.7364752636659156,0.3574214918048242,0.2993008157161105,0.09109214880349216,0.24710513132993656,0.052426807695441335,0.2912515881169241,0.28328510350902686,0.4596768915321871,0.3613582539196714,0.5758062342913993,0.7105194128271807,0.629544489110782,0.4079690141197948,0.17508573413414721,0.459508804124871,0.04672361375093219,0.3340537149607863,0.7891154919947414,0.6989401438792993,0.44413161461649675,0.3781594518025921,0.21128617838614325,0.5423644556082273,0.4523237599423893],[0.17816656952856197,0.3583716453117237,0.6382281095221406,0.24409857161715592,0.5585336258387319,0.1524685627459882,0.3756613355596937,0.5408835059629103,0.811465158158396,0.5690700379895217,0.3436224130673533,0.588290382102213,0.5754495656111304,0.2417508415967576,0.40794220675655096,0.21174055008309223,0.4617718639075003,0.7407809875010928,0.5884788344952585,0.48172990833010704,0.42017675246734953,0.3470627195711733,0.6361070696561122,0.29318594018604077,0.4003258588430299,0.35065370026851755,0.28382320928829613,0.2592012593949827,0.3474009117299509,0.41584867284716004,0.09356942963905453,0.8020537239264394,0,0.7530195971325243,0.5494736843240732,0.031140403013203904,0.44853711022111614,0.4993802646256232,0.4821409238791776,0.6557478996124662,0.4778693242618375,0.5676546423901506,0.6262547711086699,0.08593206038437569,0.5616653965732957,0.36154126060134734,0.04021319014803153,0.7481575366840622,0.6115320040388514,0.7135855793306765,0.6693907944279361,0.5571198229057659,0.5993404407696157,0.6514420466684209,0.39372038159780326,0.3060918222906368,0.3269410765641382,0.6960979599539433,0.7212341910109668,0.5451080225371436,0.14599435235316482,0.6440676676727876,0.37784002383768944,0.7742728176424538,0.5346873252310695,0.30484070925399714,0.5309286990032698,0.7628551481879323,0.8760115266311539,0.8364779320556627,0.8751704721306416,0.8384589801296678,0.7813551318914975,0.5616897297701116,0.8046869702146937,0.22548481519523889,0.21910776930195486,0.17762831227990203,0.4681435294817202,0.641233252199228,0.6366969185412718,0.8731487657703806,0.4371293590235769,0.17848764062470937,0.1404324652120948,0.35448942213604856,0.8911839598344173,0.6243035034253496,0.3967378800951515,0.32552808241044373],[0.7201510163650711,0.47428275901097716,0.22967096748345947,0.8142931426142607,0.34435330232515793,0.6158967631514457,0.5689848143149288,0.24622996777932862,0.38998051690766905,0.19260185861455806,0.383653343196731,0.26132660691166654,0.18387402701795266,0.6718771846942604,0.4750491783682301,0.8598359405733637,0.4972422066174079,0.038771944648389414,0.24431102550689837,0.5559305109209132,0.3019882138981825,0.4100965232828871,0.26715985624350397,0.4244066870107836,0.32150349409682816,0.36688448152260894,0.4982232126702921,0.7364187871488478,0.3817076814361251,0.5695680285618157,0.6861930791688466,0.3170885942501118,0.7530195971325243,0,0.29482123846449654,0.7064619352139839,0.6240231351668322,0.6181621987262361,0.7444568076624564,0.20458750958757724,0.6814325988560167,0.8063521076447274,0.5138085906812528,0.6337168147274488,0.3415964110373622,0.7540058200453479,0.689670071475015,0.6984993089795185,0.7657837611931674,0.23088326376604026,0.677532049147731,0.7397796498083724,0.3013026886987198,0.6078238371619101,0.8048819302413422,0.7061271152737851,0.795165364463739,0.5585091633958332,0.6259272964121488,0.2399733278067717,0.5714514440363222,0.2663253070372619,0.8574540969259817,0.5566069042671641,0.6022532792953149,0.8340792216783415,0.558257809055717,0.6136051071042871,0.44182093088864466,0.08388303495693651,0.3045262410898047,0.05972748922689214,0.01086151399765377,0.6816021073164595,0.02743928655299133,0.6164643663884813,0.5649018587497737,0.6577802888034703,0.2494736563982788,0.1792943672346289,0.1500938532044565,0.38509726467908995,0.41293616286956736,0.650653111542591,0.596660815772393,0.52865963448136,0.10476922224823575,0.1585913133881774,0.352741329589156,0.5031995463294598],[0.4455505939746574,0.1785678332221064,0.059782868713325256,0.5236664765208348,0.45992225009956433,0.48303076491350316,0.2512475819054454,0.02843614785004581,0.24323292532326393,0.306095688594336,0.2933667027073963,0.40296068354072234,0.08616001290560664,0.3816063602289702,0.15864571906587577,0.5819215343625659,0.1682023919364173,0.33728827425461577,0.018128782836471773,0.22548481519523877,0.1620431006351644,0.35532167522444624,0.44423074931952033,0.26379447015273527,0.24787509143180808,0.22671141587736457,0.23561011498384477,0.43952959989208745,0.18867836056010662,0.24445728890473775,0.5341565343820931,0.21906627614088234,0.5494736843240732,0.29482123846449654,0,0.5258121745157353,0.2951289541925368,0.2876752245812707,0.4148496211955622,0.4041790593242344,0.3513883823886087,0.4760288300288708,0.20714769729120303,0.4511851576584938,0.020365723079727192,0.4370063712968925,0.4748343863182401,0.4029757458479258,0.43861665465441896,0.4648992035916525,0.3648012850486469,0.40993938816049813,0.020176819152660116,0.2982063447387213,0.4850292507872622,0.3986162130359083,0.4856202050870583,0.2706522146384296,0.33463223991736585,0.3388051118476108,0.38979421364915523,0.058906876075646646,0.5427118257230273,0.3044524348561828,0.2732979699656149,0.531089594763099,0.22954146169519168,0.3404388148567427,0.31242419703848284,0.3147396457639984,0.2900692383085514,0.3387698242704114,0.2935553931625118,0.3531255646881347,0.3577171917421044,0.3390520318484394,0.4628677365519668,0.39029084127255187,0.19788908467923508,0.08876738570881373,0.33638017572974227,0.2953485760177847,0.09920229769426929,0.5384098361460667,0.4452209723979493,0.2209937606947485,0.4214330763097557,0.10064442630163545,0.32062934067131715,0.2136716670116478],[0.2160607968210282,0.3497668051168768,0.6105941778234636,0.2960862370579438,0.49478673662827427,0.08616001290560664,0.3845850675706023,0.5104363131958266,0.7954913449798717,0.5141139172047366,0.2907864477609189,0.5277785312029768,0.539469970197939,0.26820960363413343,0.4027105736447177,0.27225269473193653,0.4613838829811723,0.689823084404926,0.5607422150524548,0.4891091536533298,0.3799087375694803,0.28759757131625036,0.5746295192160045,0.2506574944538401,0.35031151121061316,0.307068606879358,0.2715696386909944,0.2977073098767362,0.3127087803711228,0.4252273740888388,0.029092200792281794,0.7803711944219752,0.031140403013203904,0.7064619352139839,0.5258121745157353,0,0.46515519604027056,0.51420043561619,0.5126410155690719,0.5969073558036629,0.5009856051650454,0.6009344992760992,0.6267177514967793,0.040091227063144656,0.5439077425440637,0.39849144654797675,0.052426807695441335,0.7621830112874544,0.638473169372491,0.653237824174285,0.6848885493510021,0.5838249855199907,0.5780495572716464,0.6606991654983093,0.4357607150566832,0.33790070035180414,0.371281957498259,0.6990174876168046,0.7296268878763166,0.48747494849253226,0.10396725772171517,0.6200148618515801,0.42712998928709706,0.774161869009445,0.5468005934930676,0.3557101296217397,0.5380160996066111,0.768386235225901,0.8617830986321995,0.7950906094431198,0.8497285525760404,0.794325176348772,0.7370620327515331,0.5818723215831151,0.7558894465621923,0.23843024144038993,0.15323251766369733,0.1990628631387989,0.421461983171188,0.6088497589603364,0.5814849014533113,0.8543490618143345,0.4235874106636556,0.11320862539332345,0.07977890035650871,0.3558890267074567,0.8429703179710418,0.5890353897024891,0.3395876415853951,0.3199165797671677],[0.25065749445384,0.1594193515821387,0.3787975692267785,0.27175021607809724,0.6913514425413883,0.4983791156737687,0.05776853603031472,0.3432111042378612,0.4320264437044348,0.5795548806280686,0.4430701404137077,0.6614445089772508,0.4067132860293981,0.17525493990816624,0.12573632360676648,0.3457242754366751,0.09127962143690682,0.6594627542409555,0.3481728035318194,0.0410442866143733,0.3704336045575811,0.5030008850026302,0.711147808409137,0.36293599570458673,0.44040471339768067,0.37670085202603193,0.211606998009916,0.19260185861455806,0.31738813151665396,0.028064151446018332,0.5089389084800509,0.4603486715832195,0.44853711022111614,0.6240231351668322,0.2951289541925368,0.46515519604027056,0,0.016356335151291996,0.08514724432717988,0.6881071267714617,0.02552643494069789,0.1602708657727328,0.18397030123902522,0.4148026904545269,0.25744391071754424,0.13345143768911638,0.380753654220207,0.2640723211548369,0.15680102937188134,0.7540443063111675,0.1851701881304626,0.10768367191966494,0.3056623903737733,0.17433205916299052,0.1691335365738536,0.13394291745664955,0.19543790793196336,0.23564420817937892,0.24400409586586155,0.5943830877996693,0.38277323080626063,0.35546359024359103,0.2345119709419992,0.3198162331572106,0.05605614867015618,0.2502695878186097,0.07360577491262295,0.2910696555270899,0.47922356453199244,0.6418732483992653,0.5482144879840939,0.6686876293968942,0.6243755788718119,0.0833735927893581,0.6871370254467907,0.19103361289186008,0.5202803113249213,0.23522017375055054,0.44130592551606296,0.41837888455201794,0.6291550346519464,0.5032093548677871,0.18220660121754984,0.5595290601489031,0.45245371681379004,0.10770210414057851,0.7522267111737583,0.43088362464715485,0.503123524103335,0.15864571906587577],[0.30270359196981805,0.18674412825359132,0.36413752568231184,0.3211963028772507,0.7129098054433531,0.5424741739810242,0.09822896244021635,0.3414738041131009,0.3942923854861881,0.5920297347966038,0.47155991227926625,0.6778691751721728,0.40488447339536127,0.2271793412374329,0.14317223432349022,0.3956792552620761,0.09153954183032557,0.6585287661164015,0.33882981117338623,0.028043421317260155,0.387879880721584,0.5333605808853874,0.7263911919846272,0.3946548755071675,0.4630558885661678,0.4025899877882421,0.2484337518636243,0.24364952722080838,0.3426491904273771,0.06005928569757284,0.5562431319555854,0.4282962943725232,0.4993802646256232,0.6181621987262361,0.2876752245812707,0.51420043561619,0.016356335151291996,0,0.09885899388774484,0.6994418339389267,0.035561655223780166,0.15295252658649264,0.14085961435196676,0.4616018273387998,0.24362587330780724,0.1773307605784336,0.4306909936232388,0.21312524225596804,0.12888987008230374,0.7645809080479344,0.13501454770692448,0.08914903181487743,0.28968364341850483,0.12253663548083464,0.20627546691438833,0.18481090764207814,0.2406770986755548,0.18641714383977825,0.19205129982449667,0.610520565266006,0.42652429167464895,0.3370330951685807,0.2731910347390762,0.2707341621655377,0.005435879598749738,0.2960942028109351,0.03518976848265531,0.23955116173922236,0.43771869708657607,0.6268793193183706,0.5164140415801044,0.656322917059906,0.6148636731592398,0.04502248287119477,0.6809883703191483,0.24037570227541077,0.5609548726202712,0.28611859910736165,0.45631497598694676,0.40751306842722446,0.6378417142068047,0.4655929829184498,0.19103361289186008,0.6039743709663646,0.49646553587210146,0.14258021418983227,0.7419237945482859,0.42390092040090727,0.5289311866844016,0.19307023591408556],[0.2689782762422824,0.2707729717670931,0.49589409606491414,0.24675445559979928,0.8014525251916841,0.5678276429472869,0.16224348692294832,0.46397971841031055,0.5239121155505787,0.6968794421846752,0.5469548383153644,0.776054072969226,0.5275064232342851,0.2088558095472488,0.24431102550689837,0.3207850671471392,0.21152683213524784,0.7802983229464784,0.46744801430962846,0.15507015222047618,0.48575200047078565,0.6035714058501004,0.8264523055345857,0.46346904388740884,0.5509352008435678,0.48457225998457404,0.3083461879688516,0.19112102212369683,0.4267872390107674,0.1450244215089351,0.5650272589425235,0.5615038875079487,0.4821409238791776,0.7444568076624564,0.4148496211955622,0.5126410155690719,0.08514724432717988,0.09885899388774484,0,0.8057806772096894,0.028621339171403123,0.0554782058697439,0.26810087730190013,0.4755793021786395,0.3746352881710214,0.09313934422942241,0.4246679734157311,0.2732979699656149,0.09679046400785431,0.8720037538460486,0.19700486531923206,0.04573966356176593,0.4218780394883993,0.22164674100923737,0.09482081270908972,0.14037243152545037,0.15127084261423113,0.2980638394886774,0.2817360903888325,0.7094188887076059,0.45614305287127443,0.47028702180768095,0.15973065186106844,0.3797815338154497,0.13113080106354563,0.20395421748173753,0.16923028748591332,0.3339000037830016,0.5626048232725654,0.7590931711690883,0.6495625037747073,0.7871955117172087,0.7439145908970528,0.08501594555368074,0.8075455229523538,0.250602111398912,0.59982510822337,0.2787244560437771,0.5577146984762072,0.5372416536523427,0.7481069598053754,0.5949658632355669,0.3025160982164821,0.6266399455260803,0.5231559581597843,0.2139735433748336,0.8715770969079225,0.5509487163907841,0.6097430317984627,0.2619887758764988],[0.6898012273907635,0.5017729548831376,0.3865299888672099,0.7941277360924451,0.11650894335144078,0.4847855722923125,0.6100541575315974,0.3402701403061381,0.5942509450513871,0.07342426833936756,0.2837073861846189,0.04099260697366194,0.2866068772030203,0.6639194747292934,0.5266869596328416,0.8214271220528556,0.5723540197922682,0.13651743913975453,0.3725430890708907,0.6362152473824192,0.28634436587046647,0.2736185538261789,0.027124523193794468,0.35912543603341973,0.24273977398292593,0.3115424093056482,0.4897583947609123,0.7303827920229545,0.3573172717890549,0.6255377099464603,0.5586692629314554,0.5282286282896699,0.6557478996124662,0.20458750958757724,0.4041790593242344,0.5969073558036629,0.6881071267714617,0.6994418339389267,0.8057806772096894,0,0.749292971539349,0.883450068827632,0.6469948467376228,0.5351597538182146,0.4601461671043241,0.7776267343983768,0.6084867694658532,0.8426424001917561,0.8617698468976799,0.030962211065841894,0.8030437356215815,0.8239472288117594,0.43803401269275943,0.7376654439497808,0.8312456638849487,0.7174116992074215,0.8028987751303304,0.7079774210881385,0.7734027684172123,0.07661123131961775,0.48272497467896336,0.4254222875549259,0.8705219705498081,0.7284293750222419,0.6965312171058353,0.8291747576815571,0.6553961583030694,0.7742646601723933,0.6548930865790814,0.3231607285453679,0.5341774044911387,0.2907864477609188,0.2510448763161186,0.7750539227018287,0.20821192864001348,0.6012208816263351,0.42158048219786626,0.627182402030352,0.21330044093351702,0.33655061294987837,0.034665824779188004,0.6047857302880686,0.4728711925368998,0.5011456290345464,0.48147700987558184,0.5602013688230264,0.28296180386922604,0.3004821440493469,0.22394214302664028,0.5186736357331905],[0.2702896573076927,0.21946536774037492,0.43166466485501914,0.2702248697115601,0.7516915233161865,0.5440103302896141,0.11416402957463374,0.4017389142248315,0.4643921104891153,0.640764578680464,0.5015909828188664,0.7225337008494943,0.46532402665419825,0.20043795491210328,0.18694008838188028,0.3454470082427024,0.1488807238153704,0.7185846579580917,0.4037282029238342,0.090925273434469,0.43154306691398936,0.5605693749319901,0.7723061210481803,0.42022602845582974,0.5007122232625986,0.4362789714247618,0.26685426775250015,0.20071201344616468,0.3772868300170617,0.08892654696175585,0.5488365128076543,0.49948891863906336,0.4778693242618375,0.6814325988560167,0.3513883823886087,0.5009856051650454,0.02552643494069789,0.035561655223780166,0.028621339171403123,0.749292971539349,0,0.0991925011398747,0.2094872203806748,0.45629348888301363,0.3104599216015003,0.11847579373427268,0.4143712852495166,0.24559647281758415,0.10485386822471653,0.8152005852576033,0.165901600851922,0.051794696553464734,0.35759625045811333,0.17514841877255866,0.13940154636631977,0.1431796221755488,0.18203672863202583,0.2471845573922229,0.24070578595378786,0.6555070525996881,0.4295420537585373,0.40597788260318957,0.20660292126591764,0.33076897346873774,0.07137037360738348,0.23743054340968917,0.1064246725915092,0.2914657345270495,0.5059194806621835,0.6948400611494024,0.5876038494175941,0.7231382162330721,0.6802153831564404,0.050853142432628805,0.744475439664163,0.229431830464011,0.5701441378292292,0.2668105870532532,0.5025100491441102,0.4733386882899787,0.6901508606367184,0.5356410435003529,0.24277773970757452,0.6043812114505779,0.49843107322916186,0.16569829284046897,0.8077711566217933,0.48763405350332106,0.5625032153462461,0.21601355145977863],[0.3538013049577632,0.353994642817897,0.5494262592925476,0.3173581892261167,0.8861934100077277,0.6587267014556961,0.2471845573922229,0.5300604726488227,0.5442268448225998,0.7751207464201519,0.6343363796382032,0.8573963929747768,0.5935058123603365,0.29797276260405386,0.32140729394642864,0.38805455185347876,0.27857732158391296,0.8471578063983769,0.5266023624878527,0.21629689075658087,0.5663917687285569,0.6920871827032049,0.9071020659187364,0.5517523317658052,0.6352410199329871,0.5702052081970271,0.3970311436206518,0.2734903601707354,0.5115482263596958,0.22380977824572487,0.654531337125554,0.5910458601917478,0.5676546423901506,0.8063521076447274,0.4760288300288708,0.6009344992760992,0.1602708657727328,0.15295252658649264,0.0554782058697439,0.883450068827632,0.0991925011398747,0,0.2929286844440745,0.5659153111288465,0.4303395203049046,0.1715132502098529,0.5128265491291324,0.23986305137991085,0.043585326273821515,0.9491817419564703,0.1760552607065276,0.03320443745114994,0.4748317979112636,0.22327964258251565,0.15370057538772786,0.2273803434835798,0.21999824360821305,0.30276997110086384,0.2688394508621266,0.7903450088702483,0.5472881398598679,0.5199498350090548,0.20655928625964234,0.37700835406609834,0.1706184698069563,0.2663253070372619,0.21427505517195197,0.3205180657926753,0.5736500789974524,0.8105662021873069,0.6779080640800484,0.8417392413760961,0.8018644165490043,0.09624072379627709,0.8690567479304212,0.3416104207203994,0.6909878393077219,0.36812335077607133,0.6371900281627736,0.5944942340479863,0.8235274679922125,0.6136213884617447,0.37566133555969367,0.7173011470749816,0.6141665782164715,0.29909957535408804,0.9283262851103466,0.6120728323072621,0.6961250460406191,0.3485788015751978],[0.4527595204369983,0.24591105215049847,0.24847560712066744,0.48929796930945796,0.6960528142481217,0.6259592522979767,0.2199930753948969,0.2711866354581625,0.22016873608224688,0.5481352736476355,0.492990141592089,0.6438615734434605,0.326591080366279,0.37559386882778667,0.19063109561252045,0.5619683848115392,0.129658870564977,0.5677203446456192,0.243460239795999,0.11816690999468278,0.37700835406609834,0.5580174771336556,0.6864438208756609,0.4345482922504919,0.46354845763502806,0.4201767524673494,0.3246893605439522,0.40699098616765306,0.3647088870216306,0.18334376240196332,0.6565902042997479,0.2624811137432914,0.6262547711086699,0.5138085906812528,0.20714769729120303,0.6267177514967793,0.18397030123902522,0.14085961435196676,0.26810087730190013,0.6469948467376228,0.2094872203806748,0.2929286844440745,0,0.5624281027414293,0.15115772071582242,0.3524111960348159,0.5520851610784171,0.1603180636527318,0.23229232181541115,0.7072680889700236,0.12804464041447527,0.2247095468756032,0.1796137565229266,0.058388602440805626,0.3827953351163639,0.3498319362706259,0.4149815877032509,0.039934128365030616,0.09445579970868269,0.5784542065175735,0.5136811207660779,0.21231666862040727,0.44974181645191563,0.11232742099375853,0.10242591372717687,0.46992387032029415,0.07482015797426628,0.11416402957463369,0.26117530098508673,0.4962370336155653,0.34965708565890397,0.5320121146802856,0.4998764362600909,0.1615278438902338,0.5736695964867379,0.36787784581348165,0.6273737513113188,0.4207821879709246,0.43020339493139187,0.29976202861636003,0.5789209438355039,0.2911747844861434,0.1929720140525803,0.6871315409496748,0.5814099578950528,0.23628630830131858,0.6211887312691537,0.3270685953456023,0.5364730881506626,0.2719951158774658],[0.19843155982646327,0.2823017520571755,0.5351574389453866,0.29386028104680684,0.4437596769217007,0.06320928037808513,0.3289361632611914,0.4347646242184694,0.7226574305294989,0.44746616964279906,0.22201619968640157,0.4689454601308884,0.4637998512063998,0.23345844712800534,0.3366074080175619,0.28724585458180873,0.39773599579896035,0.6196923344555141,0.48532607986275794,0.43071366022600005,0.3047320370620423,0.2276163250554608,0.5176190330592548,0.17578674077018697,0.2792913308638573,0.2326717452479926,0.20326395285498783,0.27590429911995046,0.23692689608350465,0.3692507565142597,0.05945010827058364,0.7059008481672536,0.08593206038437569,0.6337168147274488,0.4511851576584938,0.040091227063144656,0.4148026904545269,0.4616018273387998,0.4755793021786395,0.5351597538182146,0.45629348888301363,0.5659153111288465,0.5624281027414293,0,0.4709525581851546,0.3712981922075319,0.047219179097602586,0.7070030268028265,0.5961109778450895,0.5939215162557182,0.6313794070769632,0.5417606319184691,0.5039273454635568,0.6023299168705315,0.41434485925131376,0.3062812197665956,0.3546925742940711,0.6359595264958038,0.6702374117749458,0.4240820257901289,0.028291739579263005,0.5451740001038617,0.41654465040761995,0.7089061738995006,0.491566001878467,0.3495130314431558,0.4789155119838173,0.7067894851239745,0.7894774931813869,0.7204691414201698,0.774479989843399,0.7205862196920896,0.6633582675013329,0.5333791580786232,0.6843657086277206,0.19128409595946366,0.11836432382505274,0.163580877256951,0.3485547289147147,0.53307023343103,0.5151008609652111,0.7805638676414217,0.3528535791191557,0.11667381729716357,0.029417748363204266,0.29491718058306465,0.7711408354576288,0.5133274172539959,0.27573461704404384,0.254762932429032],[0.4386556577274493,0.1744264163749514,0.08570367982043958,0.5086840857022275,0.5144815264897047,0.5118210247559323,0.22721955398037916,0.084489316013988,0.21601355145977863,0.36205655368010053,0.33638017572974227,0.45869156666361,0.1406424221602012,0.36981491333746774,0.14103168042644942,0.5711444802305033,0.13310733325446183,0.38836940181788204,0.06197230147699486,0.18387402701795266,0.20829859973465303,0.3998892168763595,0.5002365515202188,0.297167829478428,0.29553613746053,0.2666795070946552,0.24256886411914574,0.4232189790080412,0.2216056572973214,0.21331636197358006,0.558008574083015,0.2068046310360909,0.5616653965732957,0.3415964110373622,0.020365723079727192,0.5439077425440637,0.25744391071754424,0.24362587330780724,0.3746352881710214,0.4601461671043241,0.3104599216015003,0.4303395203049046,0.15115772071582242,0.4709525581851546,0,0.40933998710283287,0.4860256229616312,0.34692804974558833,0.3886653346260337,0.5206010895983538,0.30985240021934624,0.3630553174281531,0.013457411678849658,0.24268281568737318,0.454743943407707,0.3775715135436024,0.461941842376313,0.21499298687873852,0.27864038764283366,0.39419710435901545,0.4119542273455806,0.0651149535380831,0.5152927612632884,0.25238284960638285,0.22515066832722394,0.5102814327868669,0.18113661983960436,0.28549383655090427,0.28321052499079397,0.34891566061696866,0.2866068772030203,0.3771364123150667,0.33585061215623474,0.30432809340754613,0.4038364506378329,0.334328805661702,0.49739839651784695,0.38766768317611716,0.2507313218687296,0.12846377430442507,0.39216041506572513,0.275798258654534,0.0915914622159573,0.5693212686783915,0.47169275546321643,0.2060131840228548,0.4626450424288313,0.14819212667513534,0.36892429554989115,0.21004711246583838],[0.14801957410237482,0.2471471832001184,0.5280528518857465,0.11878405984178066,0.7506486238398971,0.4679835148573096,0.1505201295837459,0.47358784388757724,0.6008224015428094,0.6690627380544658,0.4895194264640403,0.7374193500801057,0.5346039148551546,0.10426971311784751,0.24459404685614375,0.19358376945342345,0.24165556611336395,0.7789109041431307,0.4907658972498595,0.20747397707176526,0.45669084851928204,0.5388148036527018,0.7892436521710747,0.4037282029238342,0.5067410843546958,0.4371153847567063,0.25423470081046584,0.06667591830370605,0.3853766676143568,0.16069523834025104,0.4551748633702655,0.626460358392762,0.36154126060134734,0.7540058200453479,0.4370063712968925,0.39849144654797675,0.13345143768911638,0.1773307605784336,0.09313934422942241,0.7776267343983768,0.11847579373427268,0.1715132502098529,0.3524111960348159,0.3712981922075319,0.40933998710283287,0,0.31064311486460944,0.39634349376207795,0.2254595160066233,0.8442447258276108,0.31762009822997705,0.17422506971627225,0.4584883831383883,0.32886004930635904,0.017956636640433343,0.03198528903926326,0.028064151446018332,0.39850057701887687,0.39487283685446123,0.6732634430642689,0.3633600886255027,0.509964274864682,0.07029110722957992,0.48266379498488976,0.21809444086366933,0.08361751044089705,0.2425118708321445,0.44553961022626876,0.6483117577054002,0.7873737434067325,0.7138412616234604,0.8096475319119454,0.7610294573794049,0.20184403035482873,0.8166731190883334,0.16144742284498925,0.5085699835184481,0.17240418322340118,0.5297731045443989,0.5612250156279526,0.7270255690222915,0.6719070654380551,0.3067098755624489,0.5236475767426707,0.42557701310533835,0.19030388788746275,0.8886784720419284,0.5671419190378739,0.5555015046826893,0.22444553091615665],[0.12917866559619073,0.2825136159378395,0.5645078878163999,0.21620247973656997,0.5238058426681811,0.14174062014930378,0.3038614074486991,0.46837428075373977,0.7356105492427549,0.5161004085595098,0.29056780522645825,0.5448372084899267,0.5053800068355668,0.18040404954562667,0.3324203928238815,0.20469747703839242,0.3871898493866201,0.6818378785597576,0.5148848931804658,0.4095715346281376,0.3536757535597066,0.30465051014662137,0.5944942340479863,0.23027283787559422,0.3428447333172607,0.28757713314623384,0.20801138367559036,0.21040713753260132,0.27807233677008714,0.3443533023251581,0.11031395544024795,0.7267812403684566,0.04021319014803153,0.689670071475015,0.4748343863182401,0.052426807695441335,0.380753654220207,0.4306909936232388,0.4246679734157311,0.6084867694658532,0.4143712852495166,0.5128265491291324,0.5520851610784171,0.047219179097602586,0.4860256229616312,0.31064311486460944,0,0.6793565551767522,0.5510928628575472,0.668978356015872,0.6013017924338132,0.49645063654189286,0.5241552864391826,0.5802954366874006,0.3489431462897318,0.24978396330339597,0.28555965824781493,0.6226837341093344,0.6497977284695864,0.4965052653800695,0.09008757564119603,0.5693824220987475,0.34377915070349935,0.7000743025225797,0.4646774135940454,0.2740668138278069,0.4587450221348728,0.6903601957594794,0.800108128535684,0.7689168879365323,0.8005949517306862,0.7728701568097505,0.7160365394667204,0.4962867163683454,0.7432617361389169,0.1547997994530039,0.200840543660966,0.11189827649404445,0.4064563328347087,0.5692448182094503,0.5836393843743708,0.7974794432967556,0.36126172551586805,0.18679164958856023,0.11228277651110888,0.2801125380223833,0.8289592943160266,0.5537016494656436,0.34910801909779826,0.24984876095815403],[0.548078685397751,0.4079898631714075,0.4358307829879492,0.5502905981838538,0.8906491684936652,0.7829950899712343,0.34259330246454955,0.46707229888493973,0.3332128840547948,0.7441433845696529,0.6775579875761226,0.8397263699693278,0.5213702038100332,0.47426202898782394,0.35400142486060104,0.6253998012819052,0.28822643541891674,0.7567503757830102,0.4369197016351329,0.24205074574591642,0.568420724084566,0.7422686873508179,0.8824532056031594,0.6115013776031029,0.6535829983115321,0.6049012601805108,0.48132112196078736,0.4817809839203992,0.5468663793677221,0.3021173284640075,0.8020616108054935,0.3986496808740327,0.7481575366840622,0.6984993089795185,0.4029757458479258,0.7621830112874544,0.2640723211548369,0.21312524225596804,0.2732979699656149,0.8426424001917561,0.24559647281758415,0.23986305137991085,0.1603180636527318,0.7070030268028265,0.34692804974558833,0.39634349376207795,0.6793565551767522,0,0.1606077445217355,0.9023582372877517,0.04423276466246789,0.1950087087814003,0.371865999613696,0.07705748408564773,0.40365000743237284,0.42368810224891656,0.45819147805616806,0.10431691275193543,0.03701201338973879,0.7741145480570123,0.6673506180851136,0.39752557565391194,0.46702761473991533,0.1355941434312883,0.17988976917517496,0.5121974081981528,0.19627683467857987,0.06712673579343974,0.33956299214019126,0.6654138311324862,0.4754216154839566,0.7050450411338423,0.6795653544601603,0.1594193515821387,0.7559628956458483,0.4889076753806129,0.7943968164409321,0.5348564255041094,0.6246898159415891,0.4882094582497285,0.774240187269249,0.39284244279855335,0.37482525198510847,0.844789692748292,0.7371577894818262,0.37871785828408266,0.794815389378974,0.518213388764437,0.7255271741726611,0.42507253112887305],[0.39963430680911594,0.3490736764221595,0.5036015501165935,0.37814348626009564,0.8774598014150318,0.6845051699337582,0.25019564116561455,0.49684780935810957,0.4764134569165265,0.7550476340465458,0.6340089103653097,0.8420057698684544,0.5592781366805719,0.3352561759470625,0.307665659532944,0.4513805356529906,0.2542848330371914,0.8115836991785693,0.4862813808700199,0.19050844818281976,0.5523796028394022,0.6947731294536167,0.8901925689550814,0.555009551992