"trial_id","rt","stimulus","response","trial_type","trial_index","plugin_version","time_elapsed","participant_number","success","raw_payload","placements","dissimilarity_vector","n_words","trial_category","distance_matrix","value"
"consent_form","2160","
    <div style=""max-width:800px; margin:0 auto; text-align:left; font-size: 16px; padding: 10px 0;"">
      <h1>Informed Consent Form</h1>
      <p>You are being invited to participate in a research study titled <strong>""Reproducibility of Psychological Science and Instruction.""</strong> This study is being done by Dr. Bria Long from UC San Diego and associated graduate students in the Experimental Methods course. You were selected to participate in this study because you are an adult in the U.S. and have been a represented population in previous psychology studies.</p>
      
      <p>The purpose of this study is to better understand how well previously published studies in the psychological field replicate online and with different populations. Your participation in this research should last approximately <strong>5-30 minutes</strong>. If you agree to take part in this study, you may be asked to view a set of stimuli, including pictures, sounds, written text, or videos and then giving some responses via key-presses, verbally, or with paper-and-pencil. We may also observe your choices or preferences among an array of stimuli. These stimuli will be taken directly from or closely adapted from studies that already exist in the published psychological literature. Stimuli will include, e.g., pictures of objects and human faces, audio and video clips, short text passages, etc. None of the stimuli will be disturbing, threatening, or offensive. The online and in-person experiments described in this protocol will take no more than 30 minutes. An example game you might play would be to click on an image on the screen that matches a word you hear being said out loud. Your total expected time commitment for this study is between 5-30 minutes, and is specified in the study description.</p>
      
      <p>Your participation in this study is completely voluntary and you can withdraw at any time. Choosing not to participate or withdrawing will result in no penalty or loss of benefits to which you are entitled. You are free to skip any question that you choose.</p>
      
      <p>We will not be asking for any personally identifying information, and we will handle responses as confidentially as possible. Your SONA or Prolific IDs will never be tied to your responses on this survey. However, we cannot guarantee the confidentiality of information transmitted over the Internet. To minimize this risk, data containing anything that might be personally identifying (e.g. Prolific IDs or IP addresses) will be encrypted on transfer and storage and will only be accessible to qualified lab personnel. We will be keeping data collected as part of this experiment indefinitely. This anonymized data (containing neither Prolific IDs nor IP addresses) may be shared with the scientific community or with other participants to be used as stimuli in future studies.</p>
      
      <p>If you have questions about this project or if you have a research-related problem, you may contact the researcher(s), <strong>Dr. Bria Long, <a href=""mailto:brlong@ucsd.edu"">brlong@ucsd.edu</a></strong>. If you have any questions concerning your rights as a research subject, you may contact the UC San Diego Office of IRB Administration at <a href=""mailto:irb@ucsd.edu"">irb@ucsd.edu</a> or 858-246-4777.</p>
      
      <h3 style=""margin-top: 25px;"">Consent Statement</h3>
      <p style=""font-weight: bold;"">By participating in this research you are indicating that you are at least 18 years old, have read this consent form, and agree to participate in this research study. Please keep this consent form for your records.</p>
    </div>
  ","0","html-button-response","0","2.1.0","2162","mhpnw37d0g_fcfiya","","","","","","","",""
"","39167","","{""participant_date"":""11/26/2025"",""participant_time"":""12:40 PM""}","survey-html-form","1","2.1.0","41331","mhpnw37d0g_fcfiya","","","","","","","",""
"","1822","
    <div style=""display:flex; align-items:center; justify-content:center; height:100vh; font-family:sans-serif;"">
      <div style=""max-width:900px; margin:0 auto; text-align:center;"">
        <h1 style= ""font-size: 24px;"">Welcome! Thank you for participating in the study.</h1>
        <h2 style= ""font-size: 22px;"">The study will be in Madarin Chinese.</h2>
        <h2 style= ""font-size: 22px;"">Please use desktop computers or laptops for the study. Tablets and phones are not allowed.</h2>
        <p style=""font-size:16px; margin-top:30px;""><em>Press any key to continue.</em></p>
      </div>
    </div>
  "," ","html-keyboard-response","2","2.1.0","43155","mhpnw37d0g_fcfiya","","","","","","","",""
"","687","
    <div style=""display:flex; align-items:center; justify-content:center; height:100vh; font-family:sans-serif;"">
      <div style=""max-width:900px; margin:0 auto; text-align:center;"">
        <p style=""font-size:18px; line-height:1.6;"">
          In this task, you will be presented with <strong>90 words</strong> arranged <strong>outside a circle</strong>.<br>
          Your job is to <strong>drag these words into the circle</strong> and <strong>rearrange them</strong> based on their <strong>meaning similarity</strong>.<br><br>
          Words that are <strong>similar in meaning</strong> should be placed <strong>closer together</strong>.<br>
          Words that are <strong>different in meaning</strong> should be placed <strong>farther apart</strong>.<br><br>
          You can place the words <strong>anywhere inside the circle</strong>. There is no single correct answer — 
          we are interested in <strong>your personal judgment</strong> of how these words relate to each other.<br><br>
          <strong>You must move all words into the circle before you can finish.</strong><br>
          After the initial arrangement, you will arrange words from specific categories.
        </p>
        <p style=""font-size:16px; margin-top:30px;""><em>Press any key to continue.</em></p>
      </div>
    </div>
  "," ","html-keyboard-response","3","2.1.0","43843","mhpnw37d0g_fcfiya","","","","","","","",""
"","1503","","","fullscreen","4","2.1.0","46349","mhpnw37d0g_fcfiya","true","{""placements"":[{""word"":""骄傲"",""x"":358,""y"":129.7,""cx"":377,""cy"":147.1,""angle_rad"":-1.438,""angle_deg"":277.6},{""word"":""冰箱"",""x"":257,""y"":551.7,""cx"":276,""cy"":569.1,""angle_rad"":1.896,""angle_deg"":108.7},{""word"":""兔子"",""x"":595,""y"":560.7,""cx"":614,""cy"":578.1,""angle_rad"":0.713,""angle_deg"":40.8},{""word"":""反感"",""x"":357,""y"":129.7,""cx"":376,""cy"":147.1,""angle_rad"":-1.443,""angle_deg"":277.3},{""word"":""协议"",""x"":519,""y"":57.7,""cx"":538,""cy"":75.1,""angle_rad"":-0.971,""angle_deg"":304.4},{""word"":""嘴唇"",""x"":655,""y"":210.7,""cx"":674,""cy"":228.1,""angle_rad"":-0.36,""angle_deg"":339.4},{""word"":""剪刀"",""x"":319,""y"":676.7,""cx"":338,""cy"":694.1,""angle_rad"":1.606,""angle_deg"":92},{""word"":""长颈鹿"",""x"":505,""y"":628.7,""cx"":531,""cy"":646.1,""angle_rad"":1.022,""angle_deg"":58.6},{""word"":""制度"",""x"":475,""y"":322.2,""cx"":494,""cy"":339.6,""angle_rad"":-0.072,""angle_deg"":355.9},{""word"":""过失"",""x"":496,""y"":298.2,""cx"":515,""cy"":315.6,""angle_rad"":-0.206,""angle_deg"":348.2},{""word"":""友情"",""x"":353,""y"":232.2,""cx"":372,""cy"":249.6,""angle_rad"":-1.355,""angle_deg"":282.4},{""word"":""方法"",""x"":426,""y"":212.2,""cx"":445,""cy"":229.6,""angle_rad"":-0.903,""angle_deg"":308.3},{""word"":""蚂蚁"",""x"":532,""y"":614.7,""cx"":551,""cy"":632.1,""angle_rad"":0.952,""angle_deg"":54.5},{""word"":""沮丧"",""x"":269,""y"":224.2,""cx"":288,""cy"":241.6,""angle_rad"":-2.09,""angle_deg"":240.2},{""word"":""沙发"",""x"":263,""y"":630.7,""cx"":282,""cy"":648.1,""angle_rad"":1.795,""angle_deg"":102.8},{""word"":""暴力"",""x"":451,""y"":282.2,""cx"":470,""cy"":299.6,""angle_rad"":-0.398,""angle_deg"":337.2},{""word"":""筷子"",""x"":261,""y"":654.7,""cx"":280,""cy"":672.1,""angle_rad"":1.785,""angle_deg"":102.3},{""word"":""概念"",""x"":449,""y"":228.2,""cx"":468,""cy"":245.6,""angle_rad"":-0.724,""angle_deg"":318.5},{""word"":""麻雀"",""x"":475,""y"":636.7,""cx"":494,""cy"":654.1,""angle_rad"":1.129,""angle_deg"":64.7},{""word"":""椅子"",""x"":219,""y"":635.7,""cx"":238,""cy"":653.1,""angle_rad"":1.925,""angle_deg"":110.3},{""word"":""买卖"",""x"":476,""y"":256.7,""cx"":495,""cy"":274.1,""angle_rad"":-0.482,""angle_deg"":332.4},{""word"":""魔力"",""x"":315,""y"":321.7,""cx"":334,""cy"":339.1,""angle_rad"":-2.543,""angle_deg"":214.3},{""word"":""结果"",""x"":467,""y"":211.7,""cx"":486,""cy"":229.1,""angle_rad"":-0.727,""angle_deg"":318.4},{""word"":""敌意"",""x"":336,""y"":201.7,""cx"":355,""cy"":219.1,""angle_rad"":-1.533,""angle_deg"":272.2},{""word"":""纠纷"",""x"":493,""y"":228.7,""cx"":512,""cy"":246.1,""angle_rad"":-0.57,""angle_deg"":327.3},{""word"":""关系"",""x"":420,""y"":93.7,""cx"":439,""cy"":111.1,""angle_rad"":-1.214,""angle_deg"":290.4},{""word"":""铅笔"",""x"":192,""y"":636.7,""cx"":211,""cy"":654.1,""angle_rad"":2,""angle_deg"":114.6},{""word"":""愤怒"",""x"":313,""y"":236.7,""cx"":332,""cy"":254.1,""angle_rad"":-1.756,""angle_deg"":259.4},{""word"":""团队"",""x"":576,""y"":175.7,""cx"":595,""cy"":193.1,""angle_rad"":-0.57,""angle_deg"":327.4},{""word"":""洗衣机"",""x"":329,""y"":581.7,""cx"":355,""cy"":599.1,""angle_rad"":1.551,""angle_deg"":88.8},{""word"":""大腿"",""x"":597,""y"":242.7,""cx"":616,""cy"":260.1,""angle_rad"":-0.326,""angle_deg"":341.3},{""word"":""慈善"",""x"":441,""y"":147.7,""cx"":460,""cy"":165.1,""angle_rad"":-1.034,""angle_deg"":300.8},{""word"":""手指"",""x"":621,""y"":284.7,""cx"":640,""cy"":302.1,""angle_rad"":-0.164,""angle_deg"":350.6},{""word"":""性质"",""x"":445,""y"":181.7,""cx"":464,""cy"":199.1,""angle_rad"":-0.924,""angle_deg"":307.1},{""word"":""猫"",""x"":453,""y"":654.7,""cx"":465,""cy"":672.1,""angle_rad"":1.228,""angle_deg"":70.4},{""word"":""眼睛"",""x"":637,""y"":264.7,""cx"":656,""cy"":282.1,""angle_rad"":-0.218,""angle_deg"":347.5},{""word"":""床"",""x"":233,""y"":604.7,""cx"":245,""cy"":622.1,""angle_rad"":1.939,""angle_deg"":111.1},{""word"":""鼠标"",""x"":257,""y"":603.7,""cx"":276,""cy"":621.1,""angle_rad"":1.837,""angle_deg"":105.3},{""word"":""微波炉"",""x"":285,""y"":609.7,""cx"":311,""cy"":627.1,""angle_rad"":1.711,""angle_deg"":98},{""word"":""原因"",""x"":498,""y"":182.7,""cx"":517,""cy"":200.1,""angle_rad"":-0.731,""angle_deg"":318.1},{""word"":""锤子"",""x"":165,""y"":597.7,""cx"":184,""cy"":615.1,""angle_rad"":2.13,""angle_deg"":122.1},{""word"":""勺子"",""x"":302,""y"":650.7,""cx"":321,""cy"":668.1,""angle_rad"":1.662,""angle_deg"":95.2},{""word"":""缘分"",""x"":264,""y"":189.7,""cx"":283,""cy"":207.1,""angle_rad"":-2.009,""angle_deg"":244.9},{""word"":""胳膊"",""x"":612,""y"":223.7,""cx"":631,""cy"":241.1,""angle_rad"":-0.37,""angle_deg"":338.8},{""word"":""老鼠"",""x"":419,""y"":667.7,""cx"":438,""cy"":685.1,""angle_rad"":1.314,""angle_deg"":75.3},{""word"":""兴奋"",""x"":268,""y"":129.7,""cx"":287,""cy"":147.1,""angle_rad"":-1.872,""angle_deg"":252.8},{""word"":""耳朵"",""x"":580,""y"":277.7,""cx"":599,""cy"":295.1,""angle_rad"":-0.217,""angle_deg"":347.6},{""word"":""社会"",""x"":527,""y"":116.7,""cx"":546,""cy"":134.1,""angle_rad"":-0.834,""angle_deg"":312.2},{""word"":""牙刷"",""x"":201,""y"":607.7,""cx"":220,""cy"":625.1,""angle_rad"":2.012,""angle_deg"":115.3},{""word"":""过程"",""x"":501,""y"":94.7,""cx"":520,""cy"":112.1,""angle_rad"":-0.95,""angle_deg"":305.6},{""word"":""光彩"",""x"":390,""y"":133.7,""cx"":409,""cy"":151.1,""angle_rad"":-1.282,""angle_deg"":286.5},{""word"":""空调"",""x"":289,""y"":571.7,""cx"":308,""cy"":589.1,""angle_rad"":1.745,""angle_deg"":100},{""word"":""乌龟"",""x"":386,""y"":677.7,""cx"":405,""cy"":695.1,""angle_rad"":1.413,""angle_deg"":80.9},{""word"":""地位"",""x"":438,""y"":9.7,""cx"":457,""cy"":27.1,""angle_rad"":-1.251,""angle_deg"":288.3},{""word"":""创伤"",""x"":355,""y"":91.7,""cx"":374,""cy"":109.1,""angle_rad"":-1.471,""angle_deg"":275.7},{""word"":""死亡"",""x"":245,""y"":317.7,""cx"":264,""cy"":335.1,""angle_rad"":-2.97,""angle_deg"":189.8},{""word"":""快乐"",""x"":300,""y"":141.7,""cx"":319,""cy"":159.1,""angle_rad"":-1.732,""angle_deg"":260.8},{""word"":""身份"",""x"":413,""y"":42.7,""cx"":432,""cy"":60.1,""angle_rad"":-1.295,""angle_deg"":285.8},{""word"":""婚姻"",""x"":466,""y"":140.7,""cx"":485,""cy"":158.1,""angle_rad"":-0.958,""angle_deg"":305.1},{""word"":""错误"",""x"":533,""y"":170.7,""cx"":552,""cy"":188.1,""angle_rad"":-0.676,""angle_deg"":321.3},{""word"":""脚踝"",""x"":568,""y"":225.7,""cx"":587,""cy"":243.1,""angle_rad"":-0.424,""angle_deg"":335.7},{""word"":""老虎"",""x"":353,""y"":670.7,""cx"":372,""cy"":688.1,""angle_rad"":1.506,""angle_deg"":86.3},{""word"":""冷漠"",""x"":325,""y"":83.7,""cx"":344,""cy"":101.1,""angle_rad"":-1.595,""angle_deg"":268.6},{""word"":""疾病"",""x"":301,""y"":173.7,""cx"":320,""cy"":191.1,""angle_rad"":-1.757,""angle_deg"":259.3},{""word"":""扫帚"",""x"":291,""y"":542.7,""cx"":310,""cy"":560.1,""angle_rad"":1.759,""angle_deg"":100.8},{""word"":""难过"",""x"":308,""y"":114.7,""cx"":327,""cy"":132.1,""angle_rad"":-1.676,""angle_deg"":264},{""word"":""钥匙"",""x"":333,""y"":538.7,""cx"":352,""cy"":556.1,""angle_rad"":1.561,""angle_deg"":89.4},{""word"":""天堂"",""x"":288,""y"":316.7,""cx"":307,""cy"":334.1,""angle_rad"":-2.787,""angle_deg"":200.3},{""word"":""义务"",""x"":459,""y"":86.7,""cx"":478,""cy"":104.1,""angle_rad"":-1.091,""angle_deg"":297.5},{""word"":""数据"",""x"":495,""y"":136.7,""cx"":514,""cy"":154.1,""angle_rad"":-0.874,""angle_deg"":309.9},{""word"":""爱心"",""x"":396,""y"":180.7,""cx"":415,""cy"":198.1,""angle_rad"":-1.166,""angle_deg"":293.2},{""word"":""内容"",""x"":480,""y"":70.7,""cx"":499,""cy"":88.1,""angle_rad"":-1.054,""angle_deg"":299.6},{""word"":""现象"",""x"":570,""y"":144.7,""cx"":589,""cy"":162.1,""angle_rad"":-0.666,""angle_deg"":321.8},{""word"":""柜子"",""x"":257,""y"":582.7,""cx"":276,""cy"":600.1,""angle_rad"":1.858,""angle_deg"":106.5},{""word"":""奇迹"",""x"":464,""y"":37.7,""cx"":483,""cy"":55.1,""angle_rad"":-1.147,""angle_deg"":294.3},{""word"":""恐惧"",""x"":375,""y"":105.7,""cx"":394,""cy"":123.1,""angle_rad"":-1.379,""angle_deg"":281},{""word"":""膝盖"",""x"":561,""y"":262.7,""cx"":580,""cy"":280.1,""angle_rad"":-0.295,""angle_deg"":343.1},{""word"":""舒心"",""x"":343,""y"":176.7,""cx"":362,""cy"":194.1,""angle_rad"":-1.494,""angle_deg"":274.4},{""word"":""债务"",""x"":553,""y"":76.7,""cx"":572,""cy"":94.1,""angle_rad"":-0.856,""angle_deg"":310.9},{""word"":""大象"",""x"":564,""y"":588.7,""cx"":583,""cy"":606.1,""angle_rad"":0.833,""angle_deg"":47.7},{""word"":""作用"",""x"":618,""y"":134.7,""cx"":637,""cy"":152.1,""angle_rad"":-0.604,""angle_deg"":325.4},{""word"":""纪律"",""x"":597,""y"":111.7,""cx"":616,""cy"":129.1,""angle_rad"":-0.693,""angle_deg"":320.3},{""word"":""电视"",""x"":198,""y"":569.7,""cx"":217,""cy"":587.1,""angle_rad"":2.082,""angle_deg"":119.3},{""word"":""肩膀"",""x"":660,""y"":241.7,""cx"":679,""cy"":259.1,""angle_rad"":-0.27,""angle_deg"":344.6},{""word"":""鼻子"",""x"":658,""y"":276.7,""cx"":677,""cy"":294.1,""angle_rad"":-0.169,""angle_deg"":350.3},{""word"":""斧头"",""x"":290,""y"":677.7,""cx"":309,""cy"":695.1,""angle_rad"":1.689,""angle_deg"":96.8},{""word"":""风景"",""x"":661,""y"":424.7,""cx"":680,""cy"":442.1,""angle_rad"":0.272,""angle_deg"":15.6},{""word"":""熊猫"",""x"":600,""y"":535.7,""cx"":619,""cy"":553.1,""angle_rad"":0.647,""angle_deg"":37.1},{""word"":""骗局"",""x"":567,""y"":97.7,""cx"":586,""cy"":115.1,""angle_rad"":-0.783,""angle_deg"":315.1},{""word"":""桌子"",""x"":219,""y"":566.7,""cx"":238,""cy"":584.1,""angle_rad"":2.017,""angle_deg"":115.6}],""n_words"":90,""words"":[""骄傲"",""冰箱"",""兔子"",""反感"",""协议"",""嘴唇"",""剪刀"",""长颈鹿"",""制度"",""过失"",""友情"",""方法"",""蚂蚁"",""沮丧"",""沙发"",""暴力"",""筷子"",""概念"",""麻雀"",""椅子"",""买卖"",""魔力"",""结果"",""敌意"",""纠纷"",""关系"",""铅笔"",""愤怒"",""团队"",""洗衣机"",""大腿"",""慈善"",""手指"",""性质"",""猫"",""眼睛"",""床"",""鼠标"",""微波炉"",""原因"",""锤子"",""勺子"",""缘分"",""胳膊"",""老鼠"",""兴奋"",""耳朵"",""社会"",""牙刷"",""过程"",""光彩"",""空调"",""乌龟"",""地位"",""创伤"",""死亡"",""快乐"",""身份"",""婚姻"",""错误"",""脚踝"",""老虎"",""冷漠"",""疾病"",""扫帚"",""难过"",""钥匙"",""天堂"",""义务"",""数据"",""爱心"",""内容"",""现象"",""柜子"",""奇迹"",""恐惧"",""膝盖"",""舒心"",""债务"",""大象"",""作用"",""纪律"",""电视"",""肩膀"",""鼻子"",""斧头"",""风景"",""熊猫"",""骗局"",""桌子""],""distance_matrix"":[[0,0.6336635750717431,0.718478722731101,0,0.2566838468177622,0.4491333475622989,0.801214151968874,0.762915759260796,0.3282603295380088,0.31732878491611405,0.1487442286680398,0.15502419945735105,0.7527353536716995,0.18854301896005388,0.7449185283814743,0.2599834882230006,0.7799863734899802,0.19482124421292563,0.7601373090033214,0.7666065845927316,0.2522809037144119,0.28652889009232835,0.1981855739887841,0.10873280329782864,0.24357431068330548,0.1034747033492511,0.7793980781996181,0.16843934740773206,0.32464980701518126,0.6609131639416157,0.38549126305432474,0.12284767222036079,0.4453709854116763,0.1468910786843607,0.7777006461169875,0.45220389109600356,0.720141778507403,0.7079068394855342,0.7077240951276902,0.21764727779171625,0.7395126197976276,0.7655179620262841,0.1617637715843328,0.39495933391435395,0.7910539857486273,0.13026954936414406,0.38906800450081463,0.24663284268157387,0.7349592010732037,0.2140239738433838,0.04573929421965819,0.6533286166872404,0.8016917784150267,0.2096345173617551,0.05433006765024454,0.3195947606404102,0.08522903062824866,0.14919106778704996,0.15743402889598546,0.26162033485732566,0.3365090458993457,0.7904333316545906,0.08140049323158564,0.10393306304359314,0.61094856995561,0.07494382664418475,0.59830805532241,0.2907971017772291,0.1592106013047213,0.19932516750237345,0.09162825567821617,0.19689368049635936,0.3096170505749596,0.677874181776261,0.20397677537833298,0.04158508808349609,0.3537610150803578,0.07074893197515902,0.29431293400219705,0.7349359268405695,0.37916938949975987,0.34935199720776144,0.6838243793608446,0.46999403810011764,0.4875291513324375,0.8067971724324274,0.617518196766004,0.6903584884446848,0.30801513251251605,0.6697521647514827],[0.6336635750717431,0,0.49344319765258227,0.6333244756441595,0.8170066558246845,0.7656687865237461,0.20276873755428176,0.3884256234818742,0.46184910237650983,0.5084918027773311,0.4868435444274266,0.5536276138642118,0.41148211260006573,0.478220648017423,0.11450184089489582,0.4845787531911869,0.14941132861107137,0.5491614674879847,0.34102085913935554,0.13348302773683396,0.5363071605541407,0.34572709545558045,0.5834682718521882,0.5237201238515562,0.5840631568618324,0.7101021327777078,0.15515933657887065,0.46683199090460165,0.7202724014177365,0.12222567950592768,0.6710133598077572,0.6483148405598399,0.6592890954722758,0.6060064654891636,0.3135896126579985,0.695555505779759,0.08840812600628893,0.07464884289406007,0.0976906839844716,0.6436324839319737,0.14909148953207219,0.1577101914154321,0.5284957649658252,0.7059894548233604,0.2901770143784525,0.6164286875918827,0.6185055844834423,0.7479249727022383,0.11445564500265253,0.7568205269289853,0.6405881589521832,0.0537704756603063,0.26247807625992214,0.8349307103949056,0.6869498190308101,0.3414928272100024,0.6019458910405757,0.7777666348191503,0.6734318665405266,0.6871567439507128,0.6580103518993881,0.22232970657441617,0.6907423835065589,0.5555516629627075,0.05001620423537724,0.6425156291172816,0.11139338350067553,0.3454863529339084,0.7406047472938896,0.6987754502774385,0.5784323679556858,0.7745610996484059,0.7500561098649334,0.04391108405532945,0.8095980445689114,0.6738095210714921,0.6124841648409468,0.561673956193286,0.8177405628582668,0.4511448244635949,0.8058450241693954,0.8124392925518017,0.08882433915024837,0.7427381347045088,0.7102421240479814,0.18918323596175826,0.6184019049096166,0.5011322828677808,0.8031948480226795,0.05833352801999051],[0.718478722731101,0.49344319765258227,0,0.7191851356632023,0.7431353063930776,0.5183053853490401,0.43674848046457077,0.15558962984683586,0.3893264429913456,0.40917537266237014,0.5957490134259589,0.5654509918058237,0.1199883546829661,0.6843060532646246,0.4951696009598115,0.4574444753239795,0.5064053137811144,0.530068537850622,0.20644393245850948,0.5597303354492282,0.47637866064577683,0.5373718002293957,0.5426420974829491,0.6464823309640637,0.5069028485324105,0.7285029494052613,0.5988061520695814,0.6272473413968501,0.5627476880859748,0.37887940688754185,0.46400299377161514,0.6437038835289279,0.4043068169032427,0.5951473766660574,0.2564015186103162,0.43613203099626097,0.5424688191391114,0.4972553053527357,0.44780007639393626,0.5697424477162343,0.6302542156559,0.4471773231191363,0.7262807340615051,0.49243135409363065,0.30001999240153426,0.7904116878794306,0.41334564268145085,0.6559979675604082,0.5793239043196572,0.6943603498246382,0.691834082137815,0.44671865335259153,0.3491229105069359,0.8371370956062268,0.7696743348053237,0.6221990893300468,0.748583659242736,0.8021717869134055,0.6416350739362775,0.5765488085868254,0.4904667538882265,0.3876280386181647,0.8008123521479418,0.7099094115691122,0.4442812660265751,0.7748302280432413,0.38337602626851586,0.5725336541787738,0.7203243471409918,0.6361733539195121,0.6263965575883491,0.7352384345121766,0.6085352081566031,0.49431471317845516,0.7877015413532491,0.7382856692806963,0.43754954672000756,0.6708205869172376,0.7096307768981395,0.0596798429062796,0.6229818308490548,0.65574537502822,0.5797756101575344,0.4750519324116936,0.42433295186002457,0.47668568457874183,0.2198024638095106,0.03585354294167867,0.6774688107580666,0.5489586171102837],[0,0.6333244756441595,0.7191851356632023,0,0.2580207108683493,0.45054563913998064,0.8011113851155595,0.7633486739441382,0.32902291960079144,0.31825821105068436,0.14868003114477185,0.1559592177043668,0.7532308866990584,0.18754250061962263,0.7446472249646487,0.2607485534651149,0.7797217639980175,0.19581742747383682,0.7604677713264412,0.7662201607815107,0.2532794625088736,0.28621255162503373,0.19935717508040363,0.10831400733647932,0.244756169404919,0.10474304049653632,0.7789438689569655,0.16787728622951376,0.32608211292480893,0.6608436195821996,0.3868150213166396,0.12427850603789459,0.44663260050362263,0.1481493505088272,0.7779439517724571,0.4535219033735176,0.7197512531203976,0.7076032465483366,0.7075261948273628,0.21901678044408687,0.7389558246854903,0.7653629170468027,0.16053189822689468,0.3963323741249963,0.7912202222591562,0.12880584656229974,0.39028672021097915,0.24809225937545332,0.7345037652614679,0.21544599042784707,0.04719203283949835,0.6531044520259583,0.8017677988740766,0.21044993320318467,0.054233987381858535,0.31884316743695174,0.0837962001536867,0.14997826355893182,0.15889026676956056,0.2630456587700821,0.33784079195945876,0.7904211571038536,0.08055591254276982,0.10277824712652009,0.6107158861916943,0.07354303284719747,0.5982205332547198,0.29028718527598435,0.16055834648846334,0.2007869771930048,0.09251012082658466,0.19821239955515177,0.3110771203327245,0.6775571612507544,0.2050844194116557,0.04244738125348514,0.35498624814861623,0.07031745259819917,0.2957256432436211,0.7355364575990423,0.3806328227579671,0.35081158355182324,0.683325550687598,0.47136667811833116,0.488843965255223,0.8066182329813001,0.6185677839060025,0.691109052119132,0.30946205353933465,0.6693099467128384],[0.2566838468177622,0.8170066558246845,0.7431353063930776,0.2580207108683493,0,0.2981666645002329,0.9506870641139371,0.8343733980519407,0.3910058979914255,0.3521629258674741,0.35106160395667185,0.2624872077715948,0.8140407794557627,0.4381889833561571,0.9171366314037126,0.3418806984847698,0.9504755320606498,0.2683116540453365,0.8484637852991532,0.9517249154877069,0.29653554758087053,0.4868780944103433,0.23644992032636722,0.339377967186702,0.25170611256870973,0.1527261156847607,0.9718381294792579,0.3979877375109114,0.1903483923472761,0.8109440965563801,0.29240539269093313,0.17285832349984806,0.36279837699386436,0.20989822542230416,0.8788753553832394,0.3472940142077159,0.906808409051536,0.8849651551424699,0.8721510880699916,0.18406315342902796,0.9436350397864517,0.9228017435797108,0.4188229522087219,0.27704398008043163,0.9033130284317169,0.38074214416373076,0.33269999948125245,0.08568501943543153,0.9284473189006771,0.05876193156900179,0.21768638554814632,0.82276604714041,0.9266773880563357,0.1363499595604373,0.24368794643989292,0.5514130977469736,0.34185807819543756,0.15523455229267288,0.1426794423762968,0.16519928556517507,0.2546842875209108,0.9281028214136534,0.28503345386670925,0.35998495316729645,0.7829622006790864,0.31844829270145336,0.7533827471417144,0.5065107643710126,0.09607866433641801,0.1193871031806938,0.2531448646973184,0.05870854792633153,0.14614548161067983,0.8573557307560109,0.08419730746849179,0.2207107614252665,0.30482813089658256,0.309506838396083,0.05554559537272108,0.7785484505660051,0.18211287327243625,0.13739533734009993,0.8830597844026287,0.3378407919594588,0.3782028599530051,0.9659552701062781,0.5745233427760286,0.7081604891582148,0.08999137186798148,0.863336952175677],[0.4491333475622989,0.7656687865237461,0.5183053853490401,0.45054563913998064,0.2981666645002329,0,0.8394357861671211,0.6451766057500454,0.30845527564624325,0.2641781937722027,0.44169332064941197,0.3337314294230792,0.6166713518030306,0.5638710169369839,0.8394510727009843,0.3149408052156281,0.8674038915187975,0.30114512570082996,0.6754509743211536,0.8897390065494996,0.2690521769490096,0.5220449050994632,0.2737163167439527,0.46564328462821714,0.23711536397063562,0.38277988911613825,0.9194426861807559,0.5005671547655052,0.12500902829312108,0.7147073964663151,0.09549486987047197,0.32506014704942626,0.11773599735124166,0.3088309346285743,0.7168207645676815,0.08185172128332228,0.8511064288607292,0.8172330466906504,0.7880815218890304,0.2319636257491705,0.9124648721631918,0.8242112942204757,0.571668936848595,0.0642889811761659,0.7513762919066664,0.5772637284783725,0.14573852365200882,0.2309840999398473,0.8812898628176077,0.28073880473864704,0.4024599303134165,0.7509948591759036,0.7873756980702582,0.431480683121085,0.47093149546950763,0.6187543447471548,0.5278748587329343,0.42974026091591805,0.29354050422593136,0.18646114495868948,0.12775729937364205,0.8039772508624162,0.5160934117920274,0.5195096402245492,0.7196532173553801,0.5255201264253428,0.67131117290166,0.5576726833407655,0.3380143871970393,0.25656347992070433,0.38016996260606845,0.32656577823922533,0.156052754296205,0.7959360060472108,0.3757345255823136,0.43624217493279144,0.15577368077834763,0.4579151717390944,0.24503010706103812,0.5676231183277287,0.12226031669011485,0.16647984982775388,0.8491604777550086,0.04449749746138996,0.0952404285428605,0.866098519673679,0.31189178779623034,0.48100347036083574,0.2081730838678599,0.822422867215139],[0.801214151968874,0.20276873755428176,0.43674848046457077,0.8011113851155595,0.9506870641139371,0.8394357861671211,0,0.289636574269984,0.5654377648103507,0.6101316001058876,0.6510527243509165,0.696231775276331,0.32324417426497565,0.6648929256675703,0.10461184002236408,0.6074335840558008,0.08933307485520861,0.6820279110724793,0.23426062334673806,0.1567313566846463,0.6548385013588768,0.5181837756578961,0.7128007687115344,0.6942402593788782,0.7019974066871388,0.8645858804061299,0.19342875123760223,0.6426254059772781,0.822706260918524,0.13979688886925812,0.7529327539664715,0.7931597747377387,0.7228370243504411,0.7461732797517209,0.18719504029241082,0.760320135664573,0.17068790876711948,0.13872357446852726,0.10426793061558738,0.7676100992618573,0.2518753041640106,0.044005418433368235,0.7158910523462123,0.7882009065803103,0.14549818143529816,0.802654173198198,0.6964048655189182,0.8729244681885767,0.1986143514529667,0.8910926165055724,0.8000923468852225,0.15837505583827172,0.09661530746870121,0.9902422040984084,0.8564222365218658,0.5350527606813313,0.7821109692754756,0.9366681733640777,0.8120509376364575,0.8026834801643375,0.7525947277075316,0.04907115312369744,0.8665564869821539,0.7352500669419983,0.1989086037139466,0.8212948261760543,0.2015640641772601,0.5274193342696617,0.8861003796930821,0.8298576397479103,0.7332290842812409,0.9163106357318364,0.859543218960815,0.16335729195358442,0.957620228395585,0.8383203931970357,0.7004424577021803,0.7312303058713464,0.9411836296162684,0.37957443214470904,0.9045730607772078,0.9202147379036679,0.2349594168916213,0.8075628509033603,0.765998262828648,0.041008907209442357,0.6203395746906092,0.4587119810729199,0.920488986099211,0.21613136197675872],[0.762915759260796,0.3884256234818742,0.15558962984683586,0.7633486739441382,0.8343733980519407,0.6451766057500454,0.289636574269984,0,0.45041823953595245,0.4828566218097485,0.623818844482491,0.6210287243518368,0.034269836509391444,0.6892260731326757,0.36301005131678676,0.5135085681134128,0.36789148334418037,0.591957679581264,0.05394474694562512,0.427523592210393,0.5455774735389182,0.5324528677919338,0.6124440332526961,0.6745467667325618,0.584677541683955,0.7931112425148222,0.46706754120530886,0.6420080837140099,0.6681783294449529,0.2651753851620758,0.5770619364691877,0.7102059999048137,0.5267221285066908,0.6601202487188536,0.10236638478928967,0.5618641462946905,0.418626651272463,0.37356997544336457,0.3217495842486724,0.6516692884282504,0.5084639690570594,0.3075960260121596,0.7365459329251974,0.6091390042650205,0.14614548161067983,0.8115662212963753,0.521848431264547,0.748273677146256,0.4547844583241308,0.78031940729218,0.7447505902781061,0.3354360432845825,0.1964178729711501,0.911019706054734,0.8174489103027394,0.5984937741381804,0.7759719509378049,0.8684204261610563,0.7159896021890859,0.6696164970659023,0.5940762994752046,0.23924755213354915,0.8419060510017752,0.7326470950079638,0.3456437804011837,0.8079679168690893,0.2917923589187378,0.5607201351075712,0.7956471264469815,0.719107835794172,0.675900253323588,0.816624397337583,0.7120369913023686,0.37780482584677966,0.866433069449001,0.7898812304711932,0.5390312253637654,0.7048620049068092,0.8087258780737059,0.09456234074736256,0.7380640805403488,0.7654299673710965,0.4661818978303411,0.6049987281690288,0.556320384506738,0.3312993994714978,0.3682972918391025,0.1859417070710733,0.7799205722470437,0.4368975700571275],[0.3282603295380088,0.46184910237650983,0.3893264429913456,0.32902291960079144,0.3910058979914255,0.30845527564624325,0.5654377648103507,0.45041823953595245,0,0.04521441982849565,0.22044059347167233,0.17479553202496462,0.43472280198343927,0.3324402406104548,0.5464310698577656,0.06681454220539157,0.5773049113198078,0.14129047432061706,0.4588708283781928,0.5909622085178052,0.09442000337177807,0.23272988900826827,0.16069878054877104,0.26779893891055406,0.13790547867130457,0.3425446032169007,0.6178041131480044,0.26665472996789086,0.25899006781568207,0.4294252687953436,0.21167600307937293,0.2587555285263491,0.21917341267825896,0.20882230724155404,0.487065060641756,0.2501495335726018,0.5497273022874188,0.5196766777558625,0.4973675220102675,0.20547949414890743,0.6055764845435238,0.5419649153285748,0.36322233711747387,0.24551310416840133,0.5108453464519932,0.4122887310482454,0.1654577887251108,0.3088076311033412,0.5777378479134966,0.3336962738995372,0.30119821993727863,0.4540425140112686,0.5349414382482837,0.4591383592586063,0.378902641794786,0.33525237020006704,0.366520758987446,0.41758561580965536,0.264524766576397,0.2359823234518804,0.19470114383221568,0.5389900991419351,0.4109324511269848,0.33336371198029296,0.4188924003839321,0.38840158229470784,0.3775088525515635,0.27236708327784825,0.344032949298021,0.27162672345182426,0.23574309897964293,0.36673029332327833,0.29321442573888806,0.4957306301743503,0.415270890012541,0.34759872849593093,0.15160525277953016,0.2860868501227129,0.3755761667778346,0.4097905528705399,0.3436886220319734,0.3546532637485192,0.5422486957431982,0.2938462725554037,0.2745490829610863,0.5851237553077828,0.30938711060095253,0.3606578198751213,0.3536592242538878,0.5166876058949952],[0.31732878491611405,0.5084918027773311,0.40917537266237014,0.31825821105068436,0.3521629258674741,0.2641781937722027,0.6101316001058876,0.4828566218097485,0.04521441982849565,0,0.22906368007101036,0.16084239310829812,0.4647853787294818,0.34800587810712963,0.5928163084673651,0.06844247331973635,0.6235172544931542,0.12194823206318456,0.49495224073400274,0.6376152403280982,0.06596598909694987,0.2656901280726098,0.13207260801527096,0.2720265316717239,0.1003583699450562,0.3178659675517652,0.6644780442188367,0.281115296828232,0.21268882287399601,0.47502102124179674,0.16721971037150352,0.23307269178720696,0.1825630932994923,0.1846813738449512,0.5254535504922399,0.21066339734996156,0.596405142598808,0.5662780109226777,0.5435533617916263,0.16761931441459402,0.6519140296757563,0.5874693563268489,0.3734164172717988,0.2003269860622281,0.5509929794574789,0.41350636733823776,0.12509581511764573,0.2680454818788476,0.6243702408890137,0.29648971184302153,0.2849745585588977,0.5005911589822986,0.5768753550918142,0.4292636450193661,0.3645300535109146,0.3670327436876273,0.36565516572494766,0.39175032265424137,0.2332142373405711,0.19285765977882932,0.1480938510704956,0.5825615104916709,0.40005868314309195,0.3371716194587924,0.465558998524817,0.38306484097287086,0.4237898247967077,0.30418832002568186,0.31281087723830975,0.23492883124019973,0.2243750148584497,0.33235120265891743,0.24796023081731328,0.5423984090421458,0.38269694166833346,0.33133883167131345,0.10694174735998598,0.2845067053435596,0.33330931948269293,0.43523577506394934,0.29713256564976587,0.30897675769262367,0.5886032611025656,0.2524296721585653,0.23773529694860193,0.6305716583520123,0.30285714703503835,0.37803424044294776,0.3098657455196822,0.5631941575868075],[0.1487442286680398,0.4868435444274266,0.5957490134259589,0.14868003114477185,0.35106160395667185,0.44169332064941197,0.6510527243509165,0.623818844482491,0.22044059347167233,0.22906368007101036,0,0.10932419336012368,0.616675250985756,0.12204367492087928,0.5965126360730619,0.15957021598020604,0.6314422180564134,0.13917368851396303,0.6169472665823451,0.6208566160649497,0.18210849679204033,0.14085646439395666,0.16807485144245582,0.049645521111024105,0.2035187164512852,0.2237337636559488,0.6357788582579906,0.0574537441194082,0.33525555153880165,0.5107052335976588,0.35601031075476935,0.17710953871235846,0.39826452817677593,0.15215014547479608,0.6317552588910939,0.4169409340079623,0.5745833177690008,0.5601639450686394,0.5582514448710707,0.2227994984241972,0.6001417420430628,0.6156276526316802,0.14289665276432686,0.3778394233920623,0.6432575063214212,0.19344111781523296,0.33740562451855904,0.30422336483020296,0.5914791226105773,0.2942269062207822,0.15254711713691818,0.5042159590268387,0.652402418214855,0.3471657550652787,0.20420737542897188,0.20015704137813536,0.15204550862853464,0.28947921703709384,0.21135913758876743,0.27695646391638834,0.3133761840573468,0.6403699758068879,0.21972620040145038,0.11310084940189108,0.46198780598387873,0.18270274339488818,0.4481152992895666,0.15457861796561687,0.2620282118117493,0.24901451068491212,0.09673810241036247,0.29925955027154466,0.34100912980091863,0.5304593682113465,0.3263248517917063,0.18647397001570729,0.3062421721552796,0.08107992168506908,0.3693481489008452,0.6048931807511062,0.4118379962167331,0.39685780989088315,0.542142295448201,0.4481081511256814,0.4496922652269395,0.6571037506778659,0.5301652648963554,0.5712936023762178,0.3684978575674623,0.5259696749773614],[0.15502419945735105,0.5536276138642118,0.5654509918058237,0.1559592177043668,0.2624872077715948,0.3337314294230792,0.696231775276331,0.6210287243518368,0.17479553202496462,0.16084239310829812,0.10932419336012368,0,0.6077642364871555,0.2290079118137135,0.6559185335974076,0.10733382958745726,0.6897872825525545,0.03954610487046275,0.6240038390696239,0.6884998551220232,0.09650876069275985,0.22675779370970273,0.058552574416409965,0.13116303726528872,0.09953444212611562,0.17220727150254403,0.7080265039783766,0.16777762595185444,0.22449830610151375,0.5551866294398479,0.25277962001673765,0.09546448269365272,0.3030471683400861,0.051132945696029185,0.6468860100824319,0.3167940614531011,0.6433239634333672,0.6226871306107078,0.6125282193249101,0.11242563804008557,0.6799544079297593,0.6655388545498951,0.2379322625377319,0.27130488407768616,0.665331647042226,0.25942977392638783,0.24348795598286155,0.20199230292975565,0.6645536426493734,0.20257064018087712,0.12494336942892702,0.5616516046390769,0.6824008185756386,0.2954560861437477,0.20325202322419234,0.30518552748875133,0.2098690815780298,0.24736254473456065,0.11845501214469259,0.16651971016406852,0.20731927736580946,0.6780968751309241,0.2377666432307167,0.18998084620148428,0.5210910098240269,0.22258444885088915,0.4954439969774912,0.2519059580460232,0.1884753537505085,0.14824418898750832,0.062207369078383395,0.22021963152908783,0.23131681887071007,0.5945909622447173,0.2599384146531762,0.1713725775920544,0.20950888668648082,0.1306694277953497,0.2703646662107325,0.5854724516109758,0.30159789754031907,0.2888563148142983,0.6191708811136576,0.3437537913694736,0.3509947465727722,0.7083736810208379,0.46228125844740015,0.5361921131058525,0.2643958620319821,0.599402342604123],[0.7527353536716995,0.41148211260006573,0.1199883546829661,0.7532308866990584,0.8140407794557627,0.6166713518030306,0.32324417426497565,0.034269836509391444,0.43472280198343927,0.4647853787294818,0.616675250985756,0.6077642364871555,0,0.687657851373781,0.39296821909162893,0.49945049026389327,0.3994973693374528,0.5771549731800458,0.08796602299058845,0.4577052552563068,0.5289140113191977,0.5322120538590384,0.5960319006202006,0.667666236048705,0.566402054226403,0.7785470772362635,0.49723597361840255,0.6379667229545142,0.6443212435105838,0.28945988659659744,0.551283268289201,0.694942033246306,0.49881655379855,0.6449860707045656,0.13736447634624355,0.5333890033203592,0.44666845786552734,0.4013764536188433,0.34990119589154045,0.6328112644036958,0.5362912247139382,0.3392868124577946,0.7339635703132771,0.5827004338274634,0.18122376405768828,0.8067878950643312,0.4967825369214677,0.7274970311189496,0.4831302530375051,0.7610130722631063,0.7326164512121558,0.3597418508358924,0.23128345331918895,0.8947014116433573,0.8067043939589855,0.6030615024850999,0.7696632216648722,0.8537008229755385,0.6990247602905951,0.6484219895289074,0.5703497391341869,0.2730615521517718,0.8327313307614933,0.7272221814833633,0.36669465180308414,0.8004744709965378,0.31033248015593706,0.562280438487539,0.7787228437944487,0.7002791408261075,0.6642427495014462,0.7984200815223392,0.6887214481243858,0.4037705531608453,0.848937547882273,0.7781967991944829,0.5155052691039849,0.6967777655612555,0.7866080767583719,0.058886309763321966,0.7123011796659106,0.7409006160708845,0.4918302007218717,0.5757494967720482,0.5265253662929165,0.36455858929574275,0.3346816288281885,0.15110581354384892,0.7570027407528868,0.4620311423488224],[0.18854301896005388,0.478220648017423,0.6843060532646246,0.18754250061962263,0.4381889833561571,0.5638710169369839,0.6648929256675703,0.6892260731326757,0.3324402406104548,0.34800587810712963,0.12204367492087928,0.2290079118137135,0.687657851373781,0,0.5935962960263601,0.27813035284298926,0.628769144209042,0.2620678469586835,0.6734163908929651,0.6052799510606599,0.3052344295698813,0.15633303140001378,0.2889264119069518,0.10198654097576547,0.3264718788108786,0.2906587053009569,0.6127427761786676,0.0654877017599907,0.4534659832066899,0.5309203399768636,0.47939385660651174,0.27407130317721784,0.5213144070208114,0.263552412183975,0.6798412120261604,0.5404311191746665,0.5590202860356139,0.5542891396731674,0.5637971137531214,0.33918384115193534,0.5660270115355835,0.62467142002123,0.04956161508454629,0.5005868916498609,0.68381226478607,0.1368639562149205,0.4604342656090873,0.4076412303136418,0.5686222325961052,0.38743596168152766,0.21970198429636323,0.5080147432515678,0.684060766105284,0.39824040877103906,0.22974690782583299,0.13982911396288542,0.12753535731342416,0.3376552625245743,0.31171824970170364,0.3928086313625205,0.436188942157939,0.663544420011346,0.21991983388227312,0.08604381541764679,0.46583645457818407,0.1686740409089489,0.468305663005353,0.13675549733536022,0.34182453502288107,0.3532608284937373,0.1950285174219902,0.38045686174024557,0.4542188572081962,0.5235676347798971,0.39348456917127894,0.23125238453991376,0.4296365315345719,0.12724438787002532,0.46694920913694177,0.684894696940445,0.5258985854681436,0.5060851370902505,0.5148132415525135,0.5714170271443777,0.5730788019684374,0.6630368158221093,0.6430049067966078,0.6638262549899785,0.47239241845937224,0.5051683254382071],[0.7449185283814743,0.11450184089489582,0.4951696009598115,0.7446472249646487,0.9171366314037126,0.8394510727009843,0.10461184002236408,0.36301005131678676,0.5464310698577656,0.5928163084673651,0.5965126360730619,0.6559185335974076,0.39296821909162893,0.5935962960263601,0,0.5781261054146237,0.03378692864545888,0.647539957319118,0.30896554296579903,0.06335371132785426,0.6285154114448482,0.45718004371442467,0.6806547824882433,0.635490919751498,0.6764440516639003,0.8174489103027394,0.1028296155571391,0.5798603810967402,0.8068846395254914,0.12722566018570383,0.7478892356233414,0.7519850452325132,0.7272780416731209,0.7076772687471744,0.2686876214875302,0.764476743246602,0.06472739138309501,0.03902031635975916,0.05094421638702145,0.7390151396684487,0.14989335869352474,0.06268924053496427,0.6440308923363516,0.7832912415545943,0.2332085315104448,0.7318879195438398,0.6929826835131689,0.8443133753777635,0.09532900573692388,0.856945268107783,0.749371608303386,0.09290824447896322,0.19126766495570616,0.9428980162508159,0.7988819758630441,0.4574322202731262,0.7163329277263282,0.8867566978985549,0.7748633450899096,0.7792540223140278,0.740635061225707,0.1426943047927077,0.8043083455385862,0.6697569525217548,0.1337051101990036,0.7566735939760523,0.1677443928153095,0.45959338633433083,0.8448957845818635,0.7973748141894923,0.6853686018850638,0.8775979859352767,0.8399362757600006,0.06934079273040944,0.9150176505318449,0.7842720841573066,0.6916393724617346,0.6732953511509278,0.9138082800731323,0.44337915431322833,0.8913242178897293,0.901911326491805,0.12901126084574724,0.812083856259556,0.7749074989546826,0.07787384991481583,0.6544972839761548,0.511028794528024,0.8966643841185225,0.11221616780553038],[0.2599834882230006,0.4845787531911869,0.4574444753239795,0.2607485534651149,0.3418806984847698,0.3149408052156281,0.6074335840558008,0.5135085681134128,0.06681454220539157,0.06844247331973635,0.15957021598020604,0.10733382958745726,0.49945049026389327,0.27813035284298926,0.5781261054146237,0,0.6105955732492698,0.07763044113442034,0.518606710492284,0.6174355548776853,0.05080606493185456,0.20582602028873756,0.10435148192477331,0.20400414823776133,0.09809230044985354,0.27815046652413955,0.6411522546251596,0.2112231935807029,0.23890130014047076,0.46812092274890144,0.21991983388227312,0.19594770159076247,0.24739267835864182,0.14590035132626145,0.5438147062166461,0.27198736063270523,0.574110787365977,0.5481528012667485,0.5314070470721713,0.15960513569349488,0.621833559490552,0.5803342256761438,0.3039043088845409,0.24926670731857292,0.5647343999404639,0.34720876937686657,0.18746880735773436,0.2651000470681517,0.5992793180775073,0.2825710221886109,0.23351986710094616,0.48411129113689505,0.5851967978688576,0.3978489348995155,0.3107762181781606,0.3045035787640937,0.3004327620390734,0.3534781907062385,0.2068107138804894,0.20112170140106442,0.18871207665355114,0.5849977355084309,0.342672250088091,0.2695081698739855,0.4460088209184987,0.3209008478300269,0.411799116749178,0.2424053931205862,0.28492967781415257,0.22102995614141,0.16751157784845735,0.3110059929901992,0.2647019083905733,0.5220761090001044,0.35691713571158473,0.2798120319335487,0.16205391319171378,0.2195227026434083,0.3343412703785424,0.4766795236285073,0.32466705168339727,0.32709193420226945,0.5590890860372307,0.3101408855205297,0.30162970760983443,0.6235583889699456,0.37000045107413615,0.428932748760481,0.31753033441348083,0.5358652639708976],[0.7799863734899802,0.14941132861107137,0.5064053137811144,0.7797217639980175,0.9504755320606498,0.8674038915187975,0.08933307485520861,0.36789148334418037,0.5773049113198078,0.6235172544931542,0.6314422180564134,0.6897872825525545,0.3994973693374528,0.628769144209042,0.03378692864545888,0.6105955732492698,0,0.6807635254494717,0.31287478059605683,0.06600966246749482,0.660655975111473,0.4923163885885455,0.7136341394982907,0.6706197894375371,0.708545319970021,0.8520168700145085,0.10291175246166713,0.6150801652142859,0.8376683179563789,0.15172942113770477,0.7766977548345171,0.7860152061539694,0.7541529329677888,0.7414069275393391,0.269321315539354,0.7914742399892883,0.08787014547624508,0.07341438851795426,0.07851931860827072,0.7716055889737861,0.16195397906080417,0.0588330362388314,0.6791722647741925,0.8121259901535857,0.2305828225908565,0.7670485712616156,0.7213891527855355,0.8770018948991181,0.1100950351229151,0.8903145718592426,0.7841534659614797,0.126750313086785,0.18457056248661785,0.9775269981481375,0.8340080608050439,0.4923597749423231,0.75158258354918,0.9215375816785604,0.8085090122404534,0.811174812769006,0.7706863483669648,0.13521824106546596,0.8395440597955636,0.7050075834198778,0.16825009655976925,0.7919239760411737,0.19837327733257773,0.49484379471910384,0.8789848622469559,0.8305068238566174,0.7199220411822712,0.9114656993303959,0.8713512496069551,0.1040854072799554,0.9492650697913461,0.8192507866565912,0.7210541603539455,0.7084065031058157,0.9463875582152156,0.45243759254372223,0.9217708279414519,0.9331824577237753,0.15339854384487234,0.8390764725893665,0.8008978015108241,0.052713077023223275,0.6739046947663397,0.5244151986645715,0.9287479298074627,0.1412604555678674],[0.19482124421292563,0.5491614674879847,0.530068537850622,0.19581742747383682,0.2683116540453365,0.30114512570082996,0.6820279110724793,0.591957679581264,0.14129047432061706,0.12194823206318456,0.13917368851396303,0.03954610487046275,0.5771549731800458,0.2620678469586835,0.647539957319118,0.07763044113442034,0.6807635254494717,0,0.5976687608324931,0.6834432538302301,0.05599944979388947,0.23769946759543276,0.03427733017400381,0.16842200819032382,0.06294337859166946,0.19992845238382165,0.7049473084561643,0.1979882953618374,0.1996836277280176,0.5417480387455959,0.2162015029269705,0.11694478779131988,0.26352815867096446,0.06684983318865625,0.6228209855168501,0.2788506700478531,0.6390317209576262,0.6158376615929962,0.602375796248559,0.09641030687474142,0.6806693087244603,0.6533126658992927,0.2751228784645797,0.23721075677067707,0.6433306087678368,0.30015586928169524,0.2035134905074935,0.1977088189603071,0.6621027781629206,0.2082407784766199,0.16160126386377632,0.5531855145497703,0.6629013892044746,0.3187603844891382,0.2411237865940738,0.3246046380857103,0.2507151293044127,0.27511900546234935,0.1290051031228718,0.1475341250369935,0.172755363951008,0.6612918908087371,0.27724103119351834,0.22938524618263234,0.5136978258159286,0.26347560177606577,0.48369637250411784,0.26744861886347515,0.2061668089440224,0.1484372590466373,0.10270885956510417,0.23349251347877856,0.21372176699807433,0.588635937561905,0.27823473669592397,0.2080158969901549,0.1700723365862209,0.17103135914582826,0.2675083647661731,0.5523989037809282,0.2812365778143637,0.274226769568107,0.6188825727797722,0.30800907509989905,0.31257901196598875,0.6964190639216026,0.42163566312657236,0.49996347140076053,0.256057532577627,0.5975507451638706],[0.7601373090033214,0.34102085913935554,0.20644393245850948,0.7604677713264412,0.8484637852991532,0.6754509743211536,0.23426062334673806,0.05394474694562512,0.4588708283781928,0.49495224073400274,0.6169472665823451,0.6240038390696239,0.08796602299058845,0.6734163908929651,0.30896554296579903,0.518606710492284,0.31287478059605683,0.5976687608324931,0,0.37324707325392986,0.5547452878204003,0.5156710107735838,0.620720186432293,0.6669630696268909,0.5963079339425408,0.7973935874518079,0.4127641901200969,0.6302118213822752,0.689307879956369,0.21733905994457917,0.6022493853191836,0.7160149840471622,0.556320384506738,0.665967120295565,0.048495542231761196,0.5924245777434676,0.3659956716210948,0.32125870096641734,0.2692936224486431,0.6639095747488573,0.4558608624855673,0.25258467841780213,0.7220409054926469,0.6354371007488521,0.09222471099646856,0.8001030381480735,0.5460198465984147,0.7634579146488749,0.4018309121542666,0.7927754801133805,0.7452169917468706,0.2869303254966944,0.14196423525836235,0.9178744991631764,0.8153624619698403,0.5741661530102377,0.7670151174429166,0.8726990207249727,0.7246523931323757,0.6858846497326065,0.6153268334946956,0.1839129713233418,0.8372124577144124,0.7225071407957312,0.30096719209264483,0.8007375764889786,0.25107487634366665,0.5410332118212527,0.8039134097341224,0.7309729452357695,0.6759271373326107,0.8270244080033187,0.7319799384060204,0.3272671323792819,0.8754420994676873,0.7894249150776024,0.5602473848449214,0.6990125262869599,0.8261227149810331,0.14654408330077104,0.7625456960851392,0.7874558136863037,0.4156736200389229,0.636969164441958,0.5896421221746008,0.27589156410813964,0.41134200871360155,0.23376021411577969,0.7988819758630441,0.3869998220468218],[0.7666065845927316,0.13348302773683396,0.5597303354492282,0.7662201607815107,0.9517249154877069,0.8897390065494996,0.1567313566846463,0.427523592210393,0.5909622085178052,0.6376152403280982,0.6208566160649497,0.6884998551220232,0.4577052552563068,0.6052799510606599,0.06335371132785426,0.6174355548776853,0.06600966246749482,0.6834432538302301,0.37324707325392986,0,0.668793923279418,0.4791392729296686,0.7175109276632217,0.6564621588077897,0.7166835473371836,0.8446590709388138,0.03808336916628799,0.5985419802006816,0.8508199097941817,0.18714961045776404,0.7966678137941157,0.7832612103506884,0.779672396867862,0.7408400086585668,0.3319586712861355,0.8165942803474057,0.04505349994131478,0.07125154389215506,0.11196145967201784,0.7772619541316604,0.09518502657248981,0.12199162432740822,0.6546622006571421,0.8319386473546065,0.29500025756874426,0.7426344898337778,0.7427035880181846,0.8818963996252008,0.04725803658086455,0.8915209718589767,0.7747750298257086,0.13736447634624355,0.25058659967613117,0.9692670410789801,0.819296468084417,0.4655469564111101,0.7312610076381165,0.9117801109831819,0.8082616614243008,0.8198040134669022,0.7866298249938609,0.2012525299889365,0.8212622760991335,0.6853358486087511,0.17068790876711948,0.7721721172558588,0.21762772129573,0.4762553473533086,0.8755385991902591,0.8332024725785581,0.7131381311532714,0.9095028715639694,0.8819655183787609,0.09399171778397522,0.9444428374562641,0.8072052712593879,0.7392523521020937,0.6944604093659482,0.951672094458868,0.5081781916751624,0.9359942353491097,0.9442514302732774,0.09991290694879161,0.8641243953816637,0.8286016270124992,0.1192806891835541,0.7154294797106281,0.5750958724792378,0.9363895187423983,0.09953179052541343],[0.2522809037144119,0.5363071605541407,0.47637866064577683,0.2532794625088736,0.29653554758087053,0.2690521769490096,0.6548385013588768,0.5455774735389182,0.09442000337177807,0.06596598909694987,0.18210849679204033,0.09650876069275985,0.5289140113191977,0.3052344295698813,0.6285154114448482,0.05080606493185456,0.660655975111473,0.05599944979388947,0.5547452878204003,0.668793923279418,0,0.2526732109750753,0.06570733953649709,0.21870074893678468,0.04648233960263539,0.2508075027005466,0.6929178937130053,0.23890909908050328,0.18689955051342835,0.5164989235927546,0.1768258733418181,0.16610310101745382,0.2146940319230448,0.11732188944548072,0.5827426086322102,0.23448319123772016,0.6257188571422816,0.5991362035063451,0.5812021697150631,0.11153567028082514,0.674066459274442,0.6289692532690175,0.3239691460710207,0.20337626179809726,0.6058759598643512,0.35525061007485104,0.15383371593933276,0.2166280146729587,0.6512000470939368,0.2384630387163901,0.218213658845091,0.5347272148460369,0.6286786281621146,0.3643243837195749,0.2980272025688944,0.34824182299720224,0.30626566995594273,0.3250601470494263,0.16895556076208573,0.14955326187991203,0.14063613545737405,0.6306881694005322,0.3346465726909638,0.28203403072921673,0.49710063048971287,0.32051099196194666,0.4613372735514931,0.287386836306169,0.24860682598012163,0.1763686581274454,0.16004845668634135,0.27084796602322864,0.21255747739692268,0.5733765726869009,0.31956806749630623,0.26443917287266194,0.12326061079712246,0.22571221430964192,0.2850970098217321,0.5012665406114856,0.2725577245852554,0.27496307207461007,0.6112895630996238,0.2687510577675532,0.26653384496242566,0.6722165430941488,0.36431266950428576,0.4454261207412669,0.26668569173702644,0.5879361750251573],[0.28652889009232835,0.34572709545558045,0.5373718002293957,0.28621255162503373,0.4868780944103433,0.5220449050994632,0.5181837756578961,0.5324528677919338,0.23272988900826827,0.2656901280726098,0.14085646439395666,0.22675779370970273,0.5322120538590384,0.15633303140001378,0.45718004371442467,0.20582602028873756,0.4923163885885455,0.23769946759543276,0.5156710107735838,0.4791392729296686,0.2526732109750753,0,0.27316688745793605,0.17684990482543497,0.29249286458040386,0.3659490256616968,0.4935059634083987,0.1229854706553762,0.43627154196850015,0.3803383403123935,0.42719135273612957,0.3129838123313503,0.44969167163307916,0.2781763248455435,0.5223088007594341,0.47717606562824094,0.4327653873868352,0.4199403756627742,0.42142483628795957,0.33490144307867276,0.4583253981254329,0.48047030820534437,0.20566446643122055,0.4563103722467634,0.527360593681504,0.28786484207935875,0.3917278469570094,0.4301896736617069,0.44918564554617335,0.42809005397305483,0.2948014594676114,0.36643560157505844,0.5298765429793372,0.48941822532872825,0.3402411568664314,0.10116263731459867,0.26291603305292977,0.4313693275193601,0.3435543654472762,0.3866936117805607,0.3946160062858495,0.5123877145117403,0.3472049290290802,0.21613136197675878,0.32391647531482426,0.3016959678676887,0.3172506502220078,0.03872820089359765,0.4019477660384099,0.3763446150829723,0.23654895534813614,0.4381981201291916,0.45288341605112614,0.38988181576032266,0.4679652055394469,0.3266669962111092,0.36881839211829237,0.21469403192304484,0.49849098155320115,0.532918133679893,0.5197008295217435,0.51317719966151,0.3999032491345326,0.5169123841466339,0.504888621389913,0.5208977659601366,0.5269411177585268,0.5202000579136675,0.49204513746040046,0.3836904367277193],[0.1981855739887841,0.5834682718521882,0.5426420974829491,0.19935717508040363,0.23644992032636722,0.2737163167439527,0.7128007687115344,0.6124440332526961,0.16069878054877104,0.13207260801527096,0.16807485144245582,0.058552574416409965,0.5960319006202006,0.2889264119069518,0.6806547824882433,0.10435148192477331,0.7136341394982907,0.03427733017400381,0.620720186432293,0.7175109276632217,0.06570733953649709,0.27316688745793605,0,0.19083921793521158,0.044005418433368235,0.1844496020412552,0.7394793684644425,0.22689738985682387,0.1665563733216837,0.5730485036541736,0.19415293467891429,0.0996483951747557,0.24798921868200158,0.05298918908374453,0.647684776917888,0.2591781637765161,0.6733175764685054,0.6494546593070948,0.6349171768314579,0.0606704380356427,0.7159000119822818,0.6849895041028528,0.2974077791439024,0.21149876739052156,0.6696723635518863,0.3135726116966252,0.19008013918393488,0.162999444705742,0.6967885045867915,0.17687393307074376,0.15896373326231658,0.5863619665813451,0.6908491551669741,0.2972356883552598,0.23879766162753532,0.3586190862780004,0.2635796947332553,0.2582229156567863,0.10246950338416644,0.11226327337694136,0.14778374943920186,0.6907872605584592,0.2783601373287884,0.24779590257311424,0.5472530798846686,0.2711546278325466,0.5157952821740261,0.30228901483264375,0.18187347242887347,0.11571482570334427,0.11193312345244574,0.20579371959152695,0.17838719688823762,0.6225287843813225,0.2532584362890936,0.20397677537833298,0.15507039868487757,0.1871268914365711,0.23282478129881154,0.5683247972936963,0.24663284268157387,0.2386014060711728,0.6539826733562258,0.284423347199986,0.2938489931069458,0.7281668186301695,0.4202376858323328,0.511177177403535,0.22049851428779946,0.6323872143108985],[0.10873280329782864,0.5237201238515562,0.6464823309640637,0.10831400733647932,0.339377967186702,0.46564328462821714,0.6942402593788782,0.6745467667325618,0.26779893891055406,0.2720265316717239,0.049645521111024105,0.13116303726528872,0.667666236048705,0.10198654097576547,0.635490919751498,0.20400414823776133,0.6706197894375371,0.16842200819032382,0.6669630696268909,0.6564621588077897,0.21870074893678468,0.17684990482543497,0.19083921793521158,0,0.23171109062659734,0.19880165291555268,0.6692268985463897,0.05983731688617213,0.35188033816897374,0.5547433618989954,0.38524757466784854,0.17135863187206607,0.43302187240045115,0.1607433635707723,0.680862046523362,0.4486576326383243,0.6099875217526356,0.5981990973317302,0.5991897082716047,0.23728143507542457,0.6298946219325765,0.6576203939642463,0.10537657590076913,0.4037996299713638,0.6913564823844499,0.14349461241318784,0.3726032963662085,0.30453771229504417,0.6247907392891018,0.2863837897217413,0.12563425637389075,0.5444581995137532,0.699092043491669,0.3167629256707809,0.16192775671117088,0.21433692652337896,0.1009536647090095,0.257119189310686,0.20872422340122943,0.2904340151232651,0.3399275222343351,0.6854637334976162,0.17200206227853773,0.06414219340636962,0.501986232736899,0.13231104622403123,0.49182368602538784,0.18093621956337663,0.24500403087817735,0.24996107396666803,0.09158221613114703,0.28347754383319984,0.35105780558143257,0.5680690573795141,0.30304277103943905,0.1502044441630557,0.3397580396670793,0.03653623208354108,0.3650879271206624,0.6559865622481275,0.42279049750176745,0.402637576488143,0.573806879363677,0.47637641886995125,0.48246442393031735,0.6985046265690528,0.5754543434105117,0.6216887486895901,0.369338760079712,0.5595642443771988],[0.24357431068330548,0.5840631568618324,0.5069028485324105,0.244756169404919,0.25170611256870973,0.23711536397063562,0.7019974066871388,0.584677541683955,0.13790547867130457,0.1003583699450562,0.2035187164512852,0.09953444212611562,0.566402054226403,0.3264718788108786,0.6764440516639003,0.09809230044985354,0.708545319970021,0.06294337859166946,0.5963079339425408,0.7166835473371836,0.04648233960263539,0.29249286458040386,0.044005418433368235,0.23171109062659734,0,0.223175339804638,0.7406567132760326,0.2622628869876717,0.1426794423762968,0.5640221094048605,0.15213445449212,0.13942482011807175,0.2030360610472053,0.09686619118349818,0.6258571879672495,0.2157963424327543,0.6735318544792144,0.6470755740104741,0.6290542060594754,0.06626320348394206,0.7211742418678713,0.6765404354924643,0.3385503939514399,0.1728706131136179,0.6501668555223299,0.3583393363149202,0.14468685704828144,0.1698583177388279,0.6988305202482303,0.19502170270229668,0.20363234778426406,0.5826710930369162,0.674142570346678,0.3290415566661134,0.2831615776266419,0.38420184862958695,0.30840601761843706,0.29489906792625226,0.13326853010472936,0.10166244387550383,0.10840179440379777,0.6771705429264174,0.3233629167374995,0.2908703978621902,0.5450289040671688,0.3166046751487534,0.5091567345798214,0.3250732694161017,0.21225695605018496,0.13322877083544019,0.15694789549349,0.2305828225908565,0.1653277844187803,0.621276046680774,0.2813076167232449,0.2480235703083542,0.10981622196670267,0.23091035380767985,0.237725220485495,0.5356194979611825,0.22745960258080142,0.22766540160562648,0.6585120834394019,0.24371416259651604,0.250059047995405,0.7197868991856565,0.3763871427064548,0.4744040644886383,0.21875912734997396,0.6354068255612323],[0.1034747033492511,0.7101021327777078,0.7285029494052613,0.10474304049653632,0.1527261156847607,0.38277988911613825,0.8645858804061299,0.7931112425148222,0.3425446032169007,0.3178659675517652,0.2237337636559488,0.17220727150254403,0.7785470772362635,0.2906587053009569,0.8174489103027394,0.27815046652413955,0.8520168700145085,0.19992845238382165,0.7973935874518079,0.8446590709388138,0.2508075027005466,0.3659490256616968,0.1844496020412552,0.19880165291555268,0.223175339804638,0,0.8605478977256942,0.25995378151598747,0.2564970465563894,0.7233278732733164,0.33718664491029504,0.08334268681515329,0.40438600760645477,0.13243910632182573,0.8205549704040309,0.4029264161996543,0.7985767538340409,0.7822244290912742,0.7766977548345171,0.17175487189278021,0.8252900084387269,0.8319129399764694,0.2666457403974613,0.3379260225351355,0.8387029804582659,0.22717398387272017,0.3554397489078539,0.1587298592906942,0.8163218676312958,0.11710525900577509,0.07172143729037145,0.7239852673342445,0.8547861727581643,0.12427850603789459,0.09372200567271952,0.41460138166180727,0.18771103679646386,0.07388501061873294,0.09479631996695019,0.1986839410288757,0.2888074212969311,0.8487674773307559,0.1383563110218496,0.20841821344636696,0.6823252350653595,0.1653277844187803,0.6622153678836321,0.3778387173512541,0.05653292339864455,0.12507676945014484,0.13063496824133305,0.09258988037600151,0.23043505165422704,0.7530037486360529,0.10277824712652008,0.06670463119586494,0.320690600392155,0.16425176142911568,0.19479259057153359,0.7531045495899037,0.2944975828414105,0.25894790746830615,0.7673077889966786,0.4112485796997271,0.4379714720932405,0.8742612555282103,0.5978363567742728,0.6970829963488931,0.2137802516248577,0.7507855583393533],[0.7793980781996181,0.15515933657887065,0.5988061520695814,0.7789438689569655,0.9718381294792579,0.9194426861807559,0.19342875123760223,0.46706754120530886,0.6178041131480044,0.6644780442188367,0.6357788582579906,0.7080265039783766,0.49723597361840255,0.6127427761786676,0.1028296155571391,0.6411522546251596,0.10291175246166713,0.7049473084561643,0.4127641901200969,0.03808336916628799,0.6929178937130053,0.4935059634083987,0.7394793684644425,0.6692268985463897,0.7406567132760326,0.8605478977256942,0,0.6102187313312062,0.8767299235529389,0.22416028001653257,0.825575010165285,0.8017371248178962,0.8107858532774543,0.7605535274802023,0.3712491824671092,0.847495278506745,0.06687726913181082,0.10523611533653088,0.15014793064568996,0.7999079001495095,0.06796581726912782,0.1608423931082981,0.6612446122997314,0.8607168869619116,0.33388079928182024,0.7489249199119147,0.7722593451342751,0.9039343902903902,0.042980831986372335,0.9117331907435371,0.7897661609015407,0.16944514604238065,0.2887668241948058,0.9843865869652718,0.8311683672848846,0.47185804351846766,0.740113777859591,0.9262017568719846,0.8279432024954351,0.8437369019028119,0.8138818233705266,0.23938991639687154,0.8310448504582814,0.6947574244944413,0.1983571953834281,0.7812273343224896,0.24987158606416748,0.4875444856527417,0.8934191005820521,0.8542818503633492,0.7297316652305659,0.9280740114920826,0.90667866617037,0.12222567950592768,0.9614536299553035,0.8206240344083819,0.7675543828015001,0.7071876723752855,0.9737633704784584,0.5475477851576965,0.9622264837826037,0.9690606624119256,0.09699683326146491,0.8949261054937996,0.8604522053065713,0.15402673482263485,0.7518883602827908,0.6137530640637854,0.959628568359954,0.10835303247462579],[0.16843934740773206,0.46683199090460165,0.6272473413968501,0.16787728622951376,0.3979877375109114,0.5005671547655052,0.6426254059772781,0.6420080837140099,0.26665472996789086,0.281115296828232,0.0574537441194082,0.16777762595185444,0.6379667229545142,0.0654877017599907,0.5798603810967402,0.2112231935807029,0.6150801652142859,0.1979882953618374,0.6302118213822752,0.5985419802006816,0.23890909908050328,0.1229854706553762,0.22689738985682387,0.05983731688617213,0.2622628869876717,0.25995378151598747,0.6102187313312062,0,0.39370894715906785,0.5046346918877054,0.41432065246841315,0.2267284559331663,0.45479854534738234,0.20784579786189275,0.6405881589521832,0.4745436105362396,0.5520269525780831,0.5419328821914641,0.545362029734721,0.2806211072455688,0.569614909500365,0.6047231180215131,0.09791729821296236,0.43659689478461555,0.6481911851743201,0.16843934740773206,0.3939257474222351,0.35765392277850894,0.5657754289663001,0.3433866653582896,0.1867687051517136,0.4901334727980632,0.6528130868719723,0.3778415415066015,0.21949725224605526,0.15333627653742876,0.138883950018624,0.3179992837824499,0.26291603305292965,0.33472942676068357,0.3721276209310536,0.6364756773628051,0.2231705711575514,0.09240747325512184,0.4475854314440461,0.17725794565104996,0.44154282245753873,0.12121694722981909,0.30492254507725386,0.302493488546017,0.14508942602375313,0.3431909121229756,0.39808426740955793,0.5115677832685271,0.3641749993626048,0.2106722344273897,0.3635240257212535,0.09672446611157948,0.4207327375253545,0.6313317707660202,0.4692686708424516,0.4527112715416018,0.514196114495798,0.5064938937477209,0.5068965269937281,0.6449065264195103,0.5774821029273872,0.6051700380093945,0.42234587651207683,0.5007719538728412],[0.32464980701518126,0.7202724014177365,0.5627476880859748,0.32608211292480893,0.1903483923472761,0.12500902829312108,0.822706260918524,0.6681783294449529,0.25899006781568207,0.21268882287399601,0.33525555153880165,0.22449830610151375,0.6443212435105838,0.4534659832066899,0.8068846395254914,0.23890130014047076,0.8376683179563789,0.1996836277280176,0.689307879956369,0.8508199097941817,0.18689955051342835,0.43627154196850015,0.1665563733216837,0.35188033816897374,0.1426794423762968,0.2564970465563894,0.8767299235529389,0.39370894715906785,0,0.6888642234340416,0.10130866531422869,0.20034158400561325,0.17114155336353631,0.19048237834311232,0.7250122683716228,0.15646704859300395,0.8089321112288499,0.7798643626304037,0.7577057605545536,0.11316394655211508,0.860761613862828,0.8011754491141649,0.455671092983882,0.0863584653088146,0.7544548357767789,0.4543569450613988,0.14794873910297932,0.1107938096304665,0.8358574606549476,0.16011476705555464,0.27763951365711026,0.7143827451242261,0.7841834630590961,0.3145063061754532,0.34459291119681523,0.5257233596875172,0.4055720193282377,0.30646402432540265,0.16749731344921556,0.061899584059285355,0.07265228729080282,0.793198867984003,0.3898270668067024,0.4010652126758704,0.6786684491162128,0.40084160914509803,0.637921489303721,0.4678921774829864,0.21370558759263156,0.13012309767665958,0.262104427957955,0.20677856592028748,0.044753162241671106,0.7554419107416502,0.2586803901168773,0.3100712636774269,0.12775729937364205,0.339582191006554,0.14730208448028204,0.6033006738959397,0.0844470485531355,0.09712730222690939,0.7977233885358919,0.1548992220907023,0.188958350081344,0.8441968454040883,0.38364871560137564,0.5266389699176858,0.11346260238962319,0.7735112970142359],[0.6609131639416157,0.12222567950592768,0.37887940688754185,0.6608436195821996,0.8109440965563801,0.7147073964663151,0.13979688886925812,0.2651753851620758,0.4294252687953436,0.47502102124179674,0.5107052335976588,0.5551866294398479,0.28945988659659744,0.5309203399768636,0.12722566018570383,0.46812092274890144,0.15172942113770477,0.5417480387455959,0.21733905994457917,0.18714961045776404,0.5164989235927546,0.3803383403123935,0.5730485036541736,0.5547433618989954,0.5640221094048605,0.7233278732733164,0.22416028001653257,0.5046346918877054,0.6888642234340416,0,0.6247582388024816,0.6521103303406552,0.6010309350221192,0.6053660136464056,0.19177278669711062,0.6383770302923601,0.1630254962103419,0.11856885163466425,0.07487369580843821,0.6288553985789347,0.2499227259091486,0.11112730040762557,0.581905878263687,0.660188250113894,0.17347786992754655,0.6675749782848988,0.5691025941001603,0.734337817647672,0.19976748709447992,0.7511614039564933,0.6590215431763524,0.06887022489255513,0.15696818083323322,0.8489816346957137,0.7162896479020909,0.4072659679958348,0.6447175694987107,0.7954818133540714,0.6714910709412921,0.6656540758336231,0.6204980476960724,0.13116101802486219,0.7276380901488977,0.5979203605706043,0.08569731034900187,0.6833130362069297,0.06162850993135897,0.3927291529554256,0.7451022122655269,0.69021292414697,0.5920149902373871,0.7756191336301614,0.7241033873716849,0.1141780821145781,0.8165353525943541,0.6975934613245733,0.5699168288910457,0.5914244703175296,0.8030590476372131,0.33241778282597384,0.772131961434637,0.7854327794424267,0.20128951669942755,0.6859719186070137,0.6477161296131732,0.15435019327158686,0.5268377174791725,0.39077587725786467,0.7835191682315701,0.17119119537093755],[0.38549126305432474,0.6710133598077572,0.46400299377161514,0.3868150213166396,0.29240539269093313,0.09549486987047197,0.7529327539664715,0.5770619364691877,0.21167600307937293,0.16721971037150352,0.35601031075476935,0.25277962001673765,0.551283268289201,0.47939385660651174,0.7478892356233414,0.21991983388227312,0.7766977548345171,0.2162015029269705,0.6022493853191836,0.7966678137941157,0.1768258733418181,0.42719135273612957,0.19415293467891429,0.38524757466784854,0.15213445449212,0.33718664491029504,0.825575010165285,0.41432065246841315,0.10130866531422869,0.6247582388024816,0,0.26588152380084906,0.06934079273040944,0.238266509220554,0.6408083527942042,0.06535557255484042,0.7572442125556507,0.7243927002268394,0.6970063177429064,0.16797846839645147,0.8169660820591312,0.735476862623452,0.49208420681083365,0.03396879037583604,0.672966648481051,0.5077071498657804,0.05548919704250184,0.20951269477577208,0.7868200964598036,0.2567460835405581,0.34096142635211424,0.6581857577606833,0.7061968673736417,0.4114198500754014,0.4160509468967083,0.5253249487286391,0.4577052552563068,0.3963189095493295,0.24155063775541166,0.1395388229873685,0.04773935866899708,0.7196532173553801,0.45969560392629333,0.4434080502203121,0.6257735100025421,0.4611798519494759,0.5790785453957065,0.46360929231984116,0.3033943546617315,0.21385488976653122,0.30641879685858564,0.3030181449822351,0.14732368491414205,0.7023323374397438,0.3562132739837264,0.380372006943737,0.058815267934617506,0.3826627816307756,0.24990141890482068,0.5072756802798963,0.15957686793794199,0.19028136423976102,0.753628213902163,0.0907611896716294,0.10075474502389252,0.7778449891455639,0.2809209492332179,0.4274236976265563,0.21526813077338816,0.7272486421070182],[0.12284767222036079,0.6483148405598399,0.6437038835289279,0.12427850603789459,0.17285832349984806,0.32506014704942626,0.7931597747377387,0.7102059999048137,0.2587555285263491,0.23307269178720696,0.17710953871235846,0.09546448269365272,0.694942033246306,0.27407130317721784,0.7519850452325132,0.19594770159076247,0.7860152061539694,0.11694478779131988,0.7160149840471622,0.7832612103506884,0.16610310101745382,0.3129838123313503,0.0996483951747557,0.17135863187206607,0.13942482011807175,0.08334268681515329,0.8017371248178962,0.2267284559331663,0.20034158400561325,0.6521103303406552,0.26588152380084906,0,0.3296341535401158,0.04864540959872336,0.7406697042030084,0.3326487050929719,0.7377772200429185,0.7182733612077473,0.7090656416662382,0.09644040048997765,0.7712216651936651,0.7623732190623179,0.2648055219466336,0.2724365116278045,0.7603426343750677,0.25312382736119227,0.2771055134420336,0.13234307273850152,0.7579709883734806,0.11571482570334427,0.07594666614365894,0.6578202762198707,0.7784646730264299,0.20057500765408243,0.14874957722319374,0.3782987773807224,0.2051051634231787,0.1575957431928106,0.03653623208354108,0.13734132609803812,0.21668694776288538,0.7748136689901003,0.1924534425427882,0.20695853063011224,0.6169832087370157,0.1991116531179668,0.5922748494414983,0.33221559474871537,0.09162825567821617,0.07919946992517772,0.08021563502653896,0.12487343701201009,0.18740501113435226,0.6898643744824221,0.1630254962103419,0.11304239511357947,0.24181497540486907,0.14812786929787478,0.1926356514295686,0.6686660542219124,0.25830952666996454,0.23287507006128363,0.7113054597449986,0.3473677226677247,0.36804516326938713,0.8051693524747364,0.5163003452508828,0.6122887167316448,0.19695307621072783,0.6925923105827185],[0.4453709854116763,0.6592890954722758,0.4043068169032427,0.44663260050362263,0.36279837699386436,0.11773599735124166,0.7228370243504411,0.5267221285066908,0.21917341267825896,0.1825630932994923,0.39826452817677593,0.3030471683400861,0.49881655379855,0.5213144070208114,0.7272780416731209,0.24739267835864182,0.7541529329677888,0.26352815867096446,0.556320384506738,0.779672396867862,0.2146940319230448,0.44969167163307916,0.24798921868200158,0.43302187240045115,0.2030360610472053,0.40438600760645477,0.8107858532774543,0.45479854534738234,0.17114155336353631,0.6010309350221192,0.06934079273040944,0.3296341535401158,0,0.29702043534304456,0.5976271897833783,0.036025380745706506,0.7426172142850634,0.7069699653788619,0.6754351492030998,0.23242208193864844,0.8080909849932909,0.7091741824916968,0.5392630592528244,0.0887887389483182,0.6323263711126567,0.5628388136291826,0.059416481111967366,0.2803133430379879,0.7740626205882081,0.32746259221332835,0.40248114590422457,0.6408884045679344,0.668768351419539,0.48203258342332866,0.4795692570659445,0.5510041285891414,0.5128982061870997,0.46561117742989955,0.30820890715501337,0.20932982888903062,0.11462186417992219,0.6863520323332729,0.5222413052250116,0.4942995882662722,0.6116583215425386,0.5198878393539716,0.5606057965067665,0.4881946565320872,0.372992556042792,0.2830373520372445,0.3613486305582122,0.3736470879216676,0.2166280146729587,0.6870991846148989,0.4269238752951471,0.44384126381944705,0.09207595372653007,0.4350732352147494,0.3188431674369518,0.4512560482255653,0.21813562416862792,0.25418195399547167,0.7451022122655269,0.08350673474244309,0.05394474694562512,0.7506146573312089,0.21165464205164372,0.36720930061488904,0.28343242725826645,0.7172844245117332],[0.1468910786843607,0.6060064654891636,0.5951473766660574,0.1481493505088272,0.20989822542230416,0.3088309346285743,0.7461732797517209,0.6601202487188536,0.20882230724155404,0.1846813738449512,0.15215014547479608,0.051132945696029185,0.6449860707045656,0.263552412183975,0.7076772687471744,0.14590035132626145,0.7414069275393391,0.06684983318865625,0.665967120295565,0.7408400086585668,0.11732188944548072,0.2781763248455435,0.05298918908374453,0.1607433635707723,0.09686619118349818,0.13243910632182573,0.7605535274802023,0.20784579786189275,0.19048237834311232,0.6053660136464056,0.238266509220554,0.04864540959872336,0.29702043534304456,0,0.6908692697233352,0.30470220003226983,0.6957414396524207,0.6747416456721674,0.6638258524537394,0.07612635298416852,0.7325157554465875,0.716213528776689,0.2637251542586767,0.25058659967613117,0.7109130977186967,0.2685607042186225,0.24100342673503589,0.15169445431979714,0.7171115188091489,0.14997826355893182,0.1053866017327907,0.6133542008926574,0.7296510849079823,0.2505015854054728,0.18483524902681134,0.35254667131995326,0.21870074893678462,0.20731286383177422,0.06596201738780794,0.12834453900728757,0.1897442934983772,0.7268442777271612,0.22531105574639906,0.2096345173617551,0.5730037524517594,0.22175937261619444,0.5461900453972536,0.3016111521416971,0.1390898782670923,0.09699683326146491,0.0702726686765683,0.16889269166208817,0.18934611248763317,0.6467848040311683,0.2111362949549788,0.14977299520610204,0.2056230883817175,0.14801325070267232,0.21901192185191917,0.6192049686029057,0.26093538889089435,0.24347811617384973,0.6717648057724152,0.32525692720982596,0.3399086949932184,0.7591563273944686,0.47441982173674885,0.5641793163861619,0.21534225669480825,0.6519791965602828],[0.7777006461169875,0.3135896126579985,0.2564015186103162,0.7779439517724571,0.8788753553832394,0.7168207645676815,0.18719504029241082,0.10236638478928967,0.487065060641756,0.5254535504922399,0.6317552588910939,0.6468860100824319,0.13736447634624355,0.6798412120261604,0.2686876214875302,0.5438147062166461,0.269321315539354,0.6228209855168501,0.048495542231761196,0.3319586712861355,0.5827426086322102,0.5223088007594341,0.647684776917888,0.680862046523362,0.6258571879672495,0.8205549704040309,0.3712491824671092,0.6405881589521832,0.7250122683716228,0.19177278669711062,0.6408083527942042,0.7406697042030084,0.5976271897833783,0.6908692697233352,0,0.6341626160075506,0.3287627012140356,0.2850708414298888,0.23337280391982898,0.6935840146707837,0.41821335469802945,0.20939080180599517,0.7294342064686297,0.6745657817850585,0.042398564024323654,0.809946648674907,0.5841729157092719,0.794883442731448,0.3636824774748024,0.8221536829390585,0.7655179620262841,0.25847442019264477,0.09258988037600151,0.9426972194085537,0.8332961557289033,0.5728788035571911,0.7792334407318827,0.8956237316978835,0.751448856100721,0.7183224747283908,0.6513625149554876,0.13666052595397546,0.8528699192578145,0.7338717996800768,0.27844051733280917,0.8143375896915349,0.23557030113224933,0.5446524236687089,0.8301372116982049,0.7601190239232665,0.6961807227258169,0.8547861727581643,0.7667725336902581,0.294569962711811,0.902025155146579,0.8088012385816213,0.5964888995933338,0.7142450604715256,0.8589308844569806,0.1964341125172736,0.8002179602189556,0.8234857408818941,0.38226379053162746,0.6793784067581009,0.6328923253608989,0.22934231923340356,0.45937028743442154,0.2834023455719318,0.8328340546523564,0.35489006791489397],[0.45220389109600356,0.695555505779759,0.43613203099626097,0.4535219033735176,0.3472940142077159,0.08185172128332228,0.760320135664573,0.5618641462946905,0.2501495335726018,0.21066339734996156,0.4169409340079623,0.3167940614531011,0.5333890033203592,0.5404311191746665,0.764476743246602,0.27198736063270523,0.7914742399892883,0.2788506700478531,0.5924245777434676,0.8165942803474057,0.23448319123772016,0.47717606562824094,0.2591781637765161,0.4486576326383243,0.2157963424327543,0.4029264161996543,0.847495278506745,0.4745436105362396,0.15646704859300395,0.6383770302923601,0.06535557255484042,0.3326487050929719,0.036025380745706506,0.30470220003226983,0.6341626160075506,0,0.7792828356175311,0.7439060207395936,0.7126822792080023,0.23475543774448204,0.8440359569873591,0.7466316346834795,0.5554247219197843,0.06882451888034531,0.6691821760432256,0.5736541666665833,0.08410972589707916,0.2684456338945417,0.8105220459478444,0.3171935073523377,0.4077714765114201,0.6777842954632989,0.7059303992544844,0.4719847647103749,0.4827830743386602,0.5775283581271223,0.5236324097955998,0.4601483412686515,0.3077103841281988,0.20372633991972106,0.11454801839192637,0.7237593091813778,0.5264949325998036,0.5080583696643651,0.6481961318416397,0.5277837852059523,0.5975681807603902,0.5150077249647452,0.3669942241481635,0.2783601373287884,0.37210181398934694,0.3638320632441419,0.19970359741462973,0.7238065742249787,0.41628948787522635,0.44712001504580445,0.10981622196670265,0.44772853947367774,0.2999311508804648,0.4846641487259791,0.1908392179352116,0.230009684731586,0.7809617754206462,0.04614602933214546,0.033938544964282565,0.7880923757887145,0.23534875496234026,0.3988797509850426,0.26357969473325543,0.7533415917221952],[0.720141778507403,0.08840812600628893,0.5424688191391114,0.7197512531203976,0.906808409051536,0.8511064288607292,0.17068790876711948,0.418626651272463,0.5497273022874188,0.596405142598808,0.5745833177690008,0.6433239634333672,0.44666845786552734,0.5590202860356139,0.06472739138309501,0.574110787365977,0.08787014547624508,0.6390317209576262,0.3659956716210948,0.04505349994131478,0.6257188571422816,0.4327653873868352,0.6733175764685054,0.6099875217526356,0.6735318544792144,0.7985767538340409,0.06687726913181082,0.5520269525780831,0.8089321112288499,0.1630254962103419,0.7572442125556507,0.7377772200429185,0.7426172142850634,0.6957414396524207,0.3287627012140356,0.7792828356175311,0,0.04393468602668215,0.09541750194607335,0.7334084015650605,0.08840812600628893,0.1285671594604105,0.6085141347134103,0.7923936982157265,0.295700410815003,0.6965077014726025,0.7039210867400139,0.8377691611323901,0.03539139203738319,0.8466317709711875,0.7285367007117212,0.10263428066747105,0.25595247854189496,0.9230694311398099,0.7727921908638271,0.41953854666442436,0.6848318751051082,0.8654796947130764,0.7631665714208431,0.7766495725279898,0.7457490511161615,0.20802995915531258,0.7747708898011608,0.6388723978442138,0.13001722556258405,0.7257241191522432,0.18254999566939895,0.42974026091591805,0.8299053153463756,0.7886443711838582,0.6671713736527736,0.8640687036115707,0.8392880020104506,0.05417625958242917,0.8986040334644996,0.7607896584873002,0.699264809384346,0.6479866899616823,0.9075805855196557,0.4938218356994629,0.8943463283200559,0.9016421120802155,0.06414219340636962,0.8266933407093023,0.792462513461903,0.14063613545737405,0.6876046090095638,0.5551996189282282,0.8928694891952632,0.05509283401703684],[0.7079068394855342,0.07464884289406007,0.4972553053527357,0.7076032465483366,0.8849651551424699,0.8172330466906504,0.13872357446852726,0.37356997544336457,0.5196766777558625,0.5662780109226777,0.5601639450686394,0.6226871306107078,0.4013764536188433,0.5542891396731674,0.03902031635975916,0.5481528012667485,0.07341438851795426,0.6158376615929962,0.32125870096641734,0.07125154389215506,0.5991362035063451,0.4199403756627742,0.6494546593070948,0.5981990973317302,0.6470755740104741,0.7822244290912742,0.10523611533653088,0.5419328821914641,0.7798643626304037,0.11856885163466425,0.7243927002268394,0.7182733612077473,0.7069699653788619,0.6747416456721674,0.2850708414298888,0.7439060207395936,0.04393468602668215,0,0.05051320601324413,0.7085785112862238,0.13348302773683396,0.09377825868186983,0.6045958710650291,0.7596969385074765,0.2534896293339215,0.6925182229515937,0.6702546943047003,0.8135822185706236,0.08071248847022659,0.8247404550621766,0.713490317521606,0.06477592451501103,0.2162150362981666,0.9074438814587645,0.7615565795850006,0.41752362111246943,0.6776896654395834,0.8508299647252997,0.7420771511284197,0.7501231004668393,0.7150109693834783,0.1698895780293062,0.7661420153610079,0.6312149549553312,0.10075474502389252,0.7181691699163898,0.14491389571364272,0.4210624497507929,0.8109810155532279,0.7657358101162096,0.6502539761927935,0.8442196460102374,0.8117150915631879,0.029274056036886303,0.8806586221338475,0.747643318305964,0.6672050166767981,0.6360876695469068,0.8832535331323844,0.4484291108024592,0.864823331815432,0.8739039995276824,0.09820790229104275,0.7914431677209901,0.7558946562984792,0.11713235945071569,0.6453157437013836,0.5103573998385531,0.8671128821634642,0.07616776011463669],[0.7077240951276902,0.0976906839844716,0.44780007639393626,0.7075261948273628,0.8721510880699916,0.7880815218890304,0.10426793061558738,0.3217495842486724,0.4973675220102675,0.5435533617916263,0.5582514448710707,0.6125282193249101,0.34990119589154045,0.5637971137531214,0.05094421638702145,0.5314070470721713,0.07851931860827072,0.602375796248559,0.2692936224486431,0.11196145967201784,0.5812021697150631,0.42142483628795957,0.6349171768314579,0.5991897082716047,0.6290542060594754,0.7766977548345171,0.15014793064568996,0.545362029734721,0.7577057605545536,0.07487369580843821,0.6970063177429064,0.7090656416662382,0.6754351492030998,0.6638258524537394,0.23337280391982898,0.7126822792080023,0.09541750194607335,0.05051320601324413,0,0.6924688268030895,0.18525452486375082,0.060307330165704526,0.6146560820376075,0.7324281826807068,0.20289458040495312,0.7019913155610235,0.64184658370877,0.7979297801264684,0.13176541757456345,0.8120522544069567,0.7098717646131658,0.05433006765024454,0.1683510565921143,0.9023843328115879,0.7623213281099361,0.4314386188158807,0.6836492833940809,0.8471431644344599,0.7307345135085744,0.7315606478149755,0.6907176225083107,0.12480558677091118,0.769957665794222,0.6368466675408418,0.09661530746870121,0.7234475781469196,0.11854207558768581,0.42744118085824667,0.8021317971563781,0.7519352824697819,0.6446529136554103,0.8340849871845214,0.791518819812793,0.06323792154574034,0.8728068506782151,0.7461790109226784,0.6411835093023569,0.6367006473732514,0.8672041413514978,0.3978482642383941,0.8417879180224561,0.8533048972099625,0.14806340714894795,0.7602920113419921,0.7228030074353516,0.09811112849986209,0.6027211845099236,0.46218596452901123,0.8492095900420126,0.12254570431586946],[0.21764727779171625,0.6436324839319737,0.5697424477162343,0.21901678044408687,0.18406315342902796,0.2319636257491705,0.7676100992618573,0.6516692884282504,0.20547949414890743,0.16761931441459402,0.2227994984241972,0.11242563804008557,0.6328112644036958,0.33918384115193534,0.7390151396684487,0.15960513569349488,0.7716055889737861,0.09641030687474142,0.6639095747488573,0.7772619541316604,0.11153567028082514,0.33490144307867276,0.0606704380356427,0.23728143507542457,0.06626320348394206,0.17175487189278021,0.7999079001495095,0.2806211072455688,0.11316394655211508,0.6288553985789347,0.16797846839645147,0.09644040048997765,0.23242208193864844,0.07612635298416852,0.6935840146707837,0.23475543774448204,0.7334084015650605,0.7085785112862238,0.6924688268030895,0,0.7773499873857478,0.7411978093752368,0.341195969494174,0.17586194345031655,0.717787998946795,0.3440104699296312,0.18222370932840085,0.1040549560286369,0.7574545551706746,0.1274169704647857,0.17212552547216128,0.6448932680869436,0.7413838553211082,0.26655382971631536,0.24663284268157387,0.4182746094990027,0.2944975828414105,0.238266509220554,0.07582202283523432,0.05269330086639535,0.11878284536468077,0.7436875409310211,0.29028718527598435,0.2871865058327851,0.6063678550095214,0.2939142788267392,0.5728620173063095,0.36315991294709044,0.1502044441630557,0.06600966246749482,0.14786268028318444,0.16457465535641058,0.11770004509581575,0.6820729684755102,0.2165297574515925,0.2109396974449696,0.14758264594734113,0.22558014624601097,0.17333084988107456,0.6006005143218228,0.18771103679646386,0.1768559121903024,0.7152561265104012,0.2508924139131505,0.27015473917381,0.7844356660841291,0.42560905853331654,0.5363609405287946,0.15878334629121388,0.6932895816225719],[0.7395126197976276,0.14909148953207219,0.6302542156559,0.7389558246854903,0.9436350397864517,0.9124648721631918,0.2518753041640106,0.5084639690570594,0.6055764845435238,0.6519140296757563,0.6001417420430628,0.6799544079297593,0.5362912247139382,0.5660270115355835,0.14989335869352474,0.621833559490552,0.16195397906080417,0.6806693087244603,0.4558608624855673,0.09518502657248981,0.674066459274442,0.4583253981254329,0.7159000119822818,0.6298946219325765,0.7211742418678713,0.8252900084387269,0.06796581726912782,0.569614909500365,0.860761613862828,0.2499227259091486,0.8169660820591312,0.7712216651936651,0.8080909849932909,0.7325157554465875,0.41821335469802945,0.8440359569873591,0.08840812600628893,0.13348302773683396,0.18525452486375082,0.7773499873857478,0,0.21354621766768708,0.6130561909979804,0.8516189070121909,0.3841768496921599,0.6999432296466283,0.7655849987975715,0.8796865996075963,0.05322474703364792,0.8839313198059704,0.7533316573192133,0.18398230125437948,0.3425562802034776,0.9474323699910869,0.7896619069608429,0.42477298690513177,0.6946204747150071,0.888305085980815,0.7995041076608483,0.8236194775508996,0.8012982241544148,0.29372926511994973,0.7864870912423058,0.650290136069692,0.19976748709447992,0.735838718879039,0.25916172364362616,0.4475138603237755,0.861447136039544,0.8283680106637956,0.6962943383455421,0.897199754639707,0.8879498578399886,0.13497506946136031,0.9277293756016877,0.781533846999304,0.7577466794004231,0.6675701748998849,0.9493630900943011,0.5827022675779414,0.9466474568027772,0.9503033462753421,0.061882675910388964,0.8909881962285672,0.8596240842478841,0.21576182579480785,0.767426219620707,0.6416817119894361,0.9375949039437623,0.0896745722738668],[0.7655179620262841,0.1577101914154321,0.4471773231191363,0.7653629170468027,0.9228017435797108,0.8242112942204757,0.044005418433368235,0.3075960260121596,0.5419649153285748,0.5874693563268489,0.6156276526316802,0.6655388545498951,0.3392868124577946,0.62467142002123,0.06268924053496427,0.5803342256761438,0.0588330362388314,0.6533126658992927,0.25258467841780213,0.12199162432740822,0.6289692532690175,0.48047030820534437,0.6849895041028528,0.6576203939642463,0.6765404354924643,0.8319129399764694,0.1608423931082981,0.6047231180215131,0.8011754491141649,0.11112730040762557,0.735476862623452,0.7623732190623179,0.7091741824916968,0.716213528776689,0.20939080180599517,0.7466316346834795,0.1285671594604105,0.09377825868186983,0.060307330165704526,0.7411978093752368,0.21354621766768708,0,0.6755918015764392,0.7708791606461196,0.1715878187752565,0.7627475709412981,0.679453924075929,0.8467025005358401,0.1592106013047213,0.8629107405632163,0.7661545749829783,0.11572396706377518,0.1276826698541769,0.9576548520618239,0.8204155216153992,0.4930382754303767,0.7435667746027365,0.9031768636133997,0.7826712736766006,0.7782393904175047,0.7324062878564138,0.0787199620075969,0.8291383083508614,0.6967240679558747,0.15743402889598546,0.7831301516455418,0.16863468541266455,0.48784231422325336,0.8554527239265933,0.8021677880272502,0.7001005171763878,0.8865637134853092,0.8366387688522638,0.11788867361669102,0.9265896686006904,0.8033785414846596,0.6813579684814537,0.6949220363285377,0.9155166060730457,0.3926177203437978,0.8841817275021588,0.8979051458186437,0.19148430762451152,0.7941297974854767,0.7543116950193184,0.04178369947652129,0.6194586242806018,0.4660719336450637,0.8961024384490645,0.1713834234852583],[0.1617637715843328,0.5284957649658252,0.7262807340615051,0.16053189822689468,0.4188229522087219,0.571668936848595,0.7158910523462123,0.7365459329251974,0.36322233711747387,0.3734164172717988,0.14289665276432686,0.2379322625377319,0.7339635703132771,0.04956161508454629,0.6440308923363516,0.3039043088845409,0.6791722647741925,0.2751228784645797,0.7220409054926469,0.6546622006571421,0.3239691460710207,0.20566446643122055,0.2974077791439024,0.10537657590076913,0.3385503939514399,0.2666457403974613,0.6612446122997314,0.09791729821296236,0.455671092983882,0.581905878263687,0.49208420681083365,0.2648055219466336,0.5392630592528244,0.2637251542586767,0.7294342064686297,0.5554247219197843,0.6085141347134103,0.6045958710650291,0.6146560820376075,0.341195969494174,0.6130561909979804,0.6755918015764392,0,0.5103301908423009,0.7340509602709397,0.08655340931807737,0.47866651494418994,0.3980440494529394,0.6172741333952254,0.37226522785689,0.2003575078305285,0.558866888961005,0.7348064504931843,0.3649768588380286,0.19428431655132714,0.18794305938912115,0.0863584653088146,0.3049015666626944,0.30277881669426865,0.39325327900569373,0.44661108470912014,0.7145278839643052,0.17754541447585756,0.05754004347503382,0.5167325693454968,0.12581112648647758,0.5192566691439483,0.18771669926977583,0.32132839877082364,0.345436949202109,0.19219363695495748,0.3595015524256936,0.4512465834373257,0.5738627397347573,0.36622589930402955,0.20228561992523353,0.4461949094215394,0.11572396706377518,0.45273249836335594,0.7292172636560997,0.5229036125615928,0.49914191430583427,0.5630703581805103,0.5831385365986586,0.5891272278495836,0.7138363402274749,0.6738000029642337,0.7044782010538639,0.4620311423488224,0.5542693824591117],[0.39495933391435395,0.7059894548233604,0.49243135409363065,0.3963323741249963,0.27704398008043163,0.0642889811761659,0.7882009065803103,0.6091390042650205,0.24551310416840133,0.2003269860622281,0.3778394233920623,0.27130488407768616,0.5827004338274634,0.5005868916498609,0.7832912415545943,0.24926670731857292,0.8121259901535857,0.23721075677067707,0.6354371007488521,0.8319386473546065,0.20337626179809726,0.4563103722467634,0.21149876739052156,0.4037996299713638,0.1728706131136179,0.3379260225351355,0.8607168869619116,0.43659689478461555,0.0863584653088146,0.660188250113894,0.03396879037583604,0.2724365116278045,0.0887887389483182,0.25058659967613117,0.6745657817850585,0.06882451888034531,0.7923936982157265,0.7596969385074765,0.7324281826807068,0.17586194345031655,0.8516189070121909,0.7708791606461196,0.5103301908423009,0,0.7071634860119657,0.5205100374893334,0.09041207210634347,0.1985554490551159,0.8218310660831717,0.24763254102326687,0.3491656847198093,0.6934992430735766,0.7408400086585668,0.4022424062253507,0.42142483628795957,0.5530556171208372,0.4707205596867123,0.39227507152205515,0.24435558506515603,0.1377805226574128,0.06300571809462553,0.7547056210600457,0.46593444203218015,0.45959338633433083,0.6609358047156154,0.47123979123131715,0.6144508878804527,0.49192573972091463,0.29914108637844855,0.21194597273990243,0.3209000170824119,0.2943093122844168,0.12949476109597263,0.7375337359342444,0.3464544814098605,0.3860528233707187,0.09251012082658468,0.39823705873846454,0.23038423364242058,0.5373877041129622,0.12910154074962207,0.1639347138065633,0.7882741564330069,0.07357159052409325,0.10125653628824438,0.8132285957875761,0.30135656242955583,0.45554922411780757,0.19437185549889843,0.7620477904947168],[0.7910539857486273,0.2901770143784525,0.30001999240153426,0.7912202222591562,0.9033130284317169,0.7513762919066664,0.14549818143529816,0.14614548161067983,0.5108453464519932,0.5509929794574789,0.6432575063214212,0.665331647042226,0.18122376405768828,0.68381226478607,0.2332085315104448,0.5647343999404639,0.2305828225908565,0.6433306087678368,0.09222471099646856,0.29500025756874426,0.6058759598643512,0.527360593681504,0.6696723635518863,0.6913564823844499,0.6501668555223299,0.8387029804582659,0.33388079928182024,0.6481911851743201,0.7544548357767789,0.17347786992754655,0.672966648481051,0.7603426343750677,0.6323263711126567,0.7109130977186967,0.042398564024323654,0.6691821760432256,0.295700410815003,0.2534896293339215,0.20289458040495312,0.717787998946795,0.3841768496921599,0.1715878187752565,0.7340509602709397,0.7071634860119657,0,0.8164371302379341,0.6161096124752349,0.8203829367127227,0.3294885313787026,0.8457825556347414,0.7813053422367396,0.23507719133442567,0.049007520541154634,0.9620541744095172,0.8468174235003066,0.5706475259776467,0.78790105394152,0.9133927020203475,0.7729692635614296,0.744888388427526,0.6812638337898687,0.09524042854286045,0.8643409404336057,0.7419474775909816,0.26040823227537985,0.8241087949609689,0.22546688387402508,0.5469113358995136,0.8509606680367956,0.7836829070252106,0.7121540868494364,0.8769165317957132,0.7953204992340419,0.2663139142306387,0.9230184490089535,0.823654531150167,0.6267172286541823,0.7257727294901372,0.8855414027905676,0.24022904507183934,0.8312918657910987,0.8530429341265586,0.3523923149021882,0.7149392002075191,0.6692923796889766,0.18792043555218046,0.5005095399618721,0.32643512823661547,0.8605118589707486,0.3264873944835016],[0.13026954936414406,0.6164286875918827,0.7904116878794306,0.12880584656229974,0.38074214416373076,0.5772637284783725,0.802654173198198,0.8115662212963753,0.4122887310482454,0.41350636733823776,0.19344111781523296,0.25942977392638783,0.8067878950643312,0.1368639562149205,0.7318879195438398,0.34720876937686657,0.7670485712616156,0.30015586928169524,0.8001030381480735,0.7426344898337778,0.35525061007485104,0.28786484207935875,0.3135726116966252,0.14349461241318784,0.3583393363149202,0.22717398387272017,0.7489249199119147,0.16843934740773206,0.4543569450613988,0.6675749782848988,0.5077071498657804,0.25312382736119227,0.5628388136291826,0.2685607042186225,0.809946648674907,0.5736541666665833,0.6965077014726025,0.6925182229515937,0.7019913155610235,0.3440104699296312,0.6999432296466283,0.7627475709412981,0.08655340931807737,0.5205100374893334,0.8164371302379341,0,0.5039865942446096,0.3781125625856716,0.7050257786247938,0.3434053027285638,0.1772039937543345,0.6462227196341269,0.8190301748299458,0.3031131202315157,0.13749558823599792,0.27576408084955717,0.04855982608211405,0.24604493534938576,0.2887963499231049,0.3910325088986978,0.45958176926491656,0.8001137292683267,0.1057469072666597,0.07903995129959301,0.6039822363959738,0.06106570830310365,0.6047036792430128,0.27380972740644205,0.28510074796835155,0.3309547724129385,0.2002141481437396,0.3206340677993274,0.44111946101177185,0.6617891211125482,0.3154541506285186,0.159043840176129,0.46951664925016523,0.12808846599097104,0.42284351775773066,0.7979606002711719,0.510884550276907,0.480814709506603,0.6506647658200901,0.5952676627879222,0.6085843766931013,0.8012915520804054,0.7177999135972133,0.7661922526159619,0.43868270612997323,0.6421828576337556],[0.38906800450081463,0.6185055844834423,0.41334564268145085,0.39028672021097915,0.33269999948125245,0.14573852365200882,0.6964048655189182,0.521848431264547,0.1654577887251108,0.12509581511764573,0.33740562451855904,0.24348795598286155,0.4967825369214677,0.4604342656090873,0.6929826835131689,0.18746880735773436,0.7213891527855355,0.2035134905074935,0.5460198465984147,0.7427035880181846,0.15383371593933276,0.3917278469570094,0.19008013918393488,0.3726032963662085,0.14468685704828144,0.3554397489078539,0.7722593451342751,0.3939257474222351,0.14794873910297932,0.5691025941001603,0.05548919704250184,0.2771055134420336,0.059416481111967366,0.24100342673503589,0.5841729157092719,0.08410972589707916,0.7039210867400139,0.6702546943047003,0.64184658370877,0.18222370932840085,0.7655849987975715,0.679453924075929,0.47866651494418994,0.09041207210634347,0.6161096124752349,0.5039865942446096,0,0.24663284268157395,0.7340975640030488,0.29028718527598435,0.34748746570877187,0.6040158520826113,0.6492439762802391,0.442470383482335,0.42582972910759476,0.4923597749423231,0.45415949595292493,0.4205144786225453,0.25940821685109755,0.16959550576252733,0.07664922148586505,0.6628348749540578,0.4675177302119154,0.43435856867850864,0.5724608664674475,0.46267781735233887,0.5245129653597258,0.42973280813978293,0.32948205779543444,0.2395188613640964,0.30298999847779245,0.33502562239735795,0.19375825855252127,0.6487795743758685,0.38870576575120497,0.39022108846444303,0.03396879037583601,0.37562091165552425,0.2953830201768326,0.4543498947803145,0.21510991067942495,0.24278176586906783,0.7023140725996196,0.12694233158053436,0.1127144980667636,0.7217002898500132,0.24420301733178457,0.37730457390620525,0.2626890349857489,0.6753971674101958],[0.24663284268157387,0.7479249727022383,0.6559979675604082,0.24809225937545332,0.08568501943543153,0.2309840999398473,0.8729244681885767,0.748273677146256,0.3088076311033412,0.2680454818788476,0.30422336483020296,0.20199230292975565,0.7274970311189496,0.4076412303136418,0.8443133753777635,0.2651000470681517,0.8770018948991181,0.1977088189603071,0.7634579146488749,0.8818963996252008,0.2166280146729587,0.4301896736617069,0.162999444705742,0.30453771229504417,0.1698583177388279,0.1587298592906942,0.9039343902903902,0.35765392277850894,0.1107938096304665,0.734337817647672,0.20951269477577208,0.13234307273850152,0.2803133430379879,0.15169445431979714,0.794883442731448,0.2684456338945417,0.8377691611323901,0.8135822185706236,0.7979297801264684,0.1040549560286369,0.8796865996075963,0.8467025005358401,0.3980440494529394,0.1985554490551159,0.8203829367127227,0.3781125625856716,0.24663284268157395,0,0.861198821370571,0.0483882182731474,0.2006015160067236,0.7501288015189528,0.8452121432912425,0.20224881407058068,0.25293862378983895,0.5054193459513354,0.33280576929811617,0.1974706860789323,0.09448422087797943,0.07806265278898233,0.16899327109193626,0.8484826904595503,0.2981237600514469,0.339692107041391,0.7113640700069322,0.3191005776722389,0.6783628290793515,0.4546881853552218,0.1073239832113667,0.0537704756603063,0.2119409531664393,0.09479631996695019,0.07364293721067472,0.7868404799644022,0.1464354802879065,0.22160095451671707,0.21795506268523904,0.2818147895259445,0.0683658133820791,0.6915234478711828,0.13431396399852444,0.10125653628824434,0.8180138111588356,0.26569313534817485,0.30121149204113973,0.8899421189936751,0.4901748729321564,0.6210661516042192,0.06335371132785426,0.796709419388087],[0.7349592010732037,0.11445564500265253,0.5793239043196572,0.7345037652614679,0.9284473189006771,0.8812898628176077,0.1986143514529667,0.4547844583241308,0.5777378479134966,0.6243702408890137,0.5914791226105773,0.6645536426493734,0.4831302530375051,0.5686222325961052,0.09532900573692388,0.5992793180775073,0.1100950351229151,0.6621027781629206,0.4018309121542666,0.04725803658086455,0.6512000470939368,0.44918564554617335,0.6967885045867915,0.6247907392891018,0.6988305202482303,0.8163218676312958,0.042980831986372335,0.5657754289663001,0.8358574606549476,0.19976748709447992,0.7868200964598036,0.7579709883734806,0.7740626205882081,0.7171115188091489,0.3636824774748024,0.8105220459478444,0.03539139203738319,0.08071248847022659,0.13176541757456345,0.7574545551706746,0.05322474703364792,0.1592106013047213,0.6172741333952254,0.8218310660831717,0.3294885313787026,0.7050257786247938,0.7340975640030488,0.861198821370571,0,0.8683859450664322,0.7454508003591052,0.1377035708828376,0.2880573033954002,0.94006589772223,0.7867263255490738,0.4278680501061253,0