"trial_id","rt","stimulus","response","trial_type","trial_index","plugin_version","time_elapsed","participant_number","success","raw_payload","placements","dissimilarity_vector","n_words","trial_category","distance_matrix","value"
"consent_form","69981","
    <div style=""max-width:800px; margin:0 auto; text-align:left; font-size: 16px; padding: 10px 0;"">
      <h1>Informed Consent Form</h1>
      <p>You are being invited to participate in a research study titled <strong>""Reproducibility of Psychological Science and Instruction.""</strong> This study is being done by Dr. Bria Long from UC San Diego and associated graduate students in the Experimental Methods course. You were selected to participate in this study because you are an adult in the U.S. and have been a represented population in previous psychology studies.</p>
      
      <p>The purpose of this study is to better understand how well previously published studies in the psychological field replicate online and with different populations. Your participation in this research should last approximately <strong>5-30 minutes</strong>. If you agree to take part in this study, you may be asked to view a set of stimuli, including pictures, sounds, written text, or videos and then giving some responses via key-presses, verbally, or with paper-and-pencil. We may also observe your choices or preferences among an array of stimuli. These stimuli will be taken directly from or closely adapted from studies that already exist in the published psychological literature. Stimuli will include, e.g., pictures of objects and human faces, audio and video clips, short text passages, etc. None of the stimuli will be disturbing, threatening, or offensive. The online and in-person experiments described in this protocol will take no more than 30 minutes. An example game you might play would be to click on an image on the screen that matches a word you hear being said out loud. Your total expected time commitment for this study is between 5-30 minutes, and is specified in the study description.</p>
      
      <p>Your participation in this study is completely voluntary and you can withdraw at any time. Choosing not to participate or withdrawing will result in no penalty or loss of benefits to which you are entitled. You are free to skip any question that you choose.</p>
      
      <p>We will not be asking for any personally identifying information, and we will handle responses as confidentially as possible. Your SONA or Prolific IDs will never be tied to your responses on this survey. However, we cannot guarantee the confidentiality of information transmitted over the Internet. To minimize this risk, data containing anything that might be personally identifying (e.g. Prolific IDs or IP addresses) will be encrypted on transfer and storage and will only be accessible to qualified lab personnel. We will be keeping data collected as part of this experiment indefinitely. This anonymized data (containing neither Prolific IDs nor IP addresses) may be shared with the scientific community or with other participants to be used as stimuli in future studies.</p>
      
      <p>If you have questions about this project or if you have a research-related problem, you may contact the researcher(s), <strong>Dr. Bria Long, <a href=""mailto:brlong@ucsd.edu"">brlong@ucsd.edu</a></strong>. If you have any questions concerning your rights as a research subject, you may contact the UC San Diego Office of IRB Administration at <a href=""mailto:irb@ucsd.edu"">irb@ucsd.edu</a> or 858-246-4777.</p>
      
      <h3 style=""margin-top: 25px;"">Consent Statement</h3>
      <p style=""font-weight: bold;"">By participating in this research you are indicating that you are at least 18 years old, have read this consent form, and agree to participate in this research study. Please keep this consent form for your records.</p>
    </div>
  ","0","html-button-response","0","2.1.0","69984","opf25stbb7_f7u3vi","","","","","","","",""
"","103948","","{""participant_date"":""11/25/2025"",""participant_time"":""15:40""}","survey-html-form","1","2.1.0","173936","opf25stbb7_f7u3vi","","","","","","","",""
"","2770","
    <div style=""display:flex; align-items:center; justify-content:center; height:100vh; font-family:sans-serif;"">
      <div style=""max-width:900px; margin:0 auto; text-align:center;"">
        <h1 style= ""font-size: 24px;"">Welcome! Thank you for participating in the study.</h1>
        <h2 style= ""font-size: 22px;"">The study will be in Madarin Chinese.</h2>
        <h2 style= ""font-size: 22px;"">Please use desktop computers or laptops for the study. Tablets and phones are not allowed.</h2>
        <p style=""font-size:16px; margin-top:30px;""><em>Press any key to continue.</em></p>
      </div>
    </div>
  "," ","html-keyboard-response","2","2.1.0","176708","opf25stbb7_f7u3vi","","","","","","","",""
"","14828","
    <div style=""display:flex; align-items:center; justify-content:center; height:100vh; font-family:sans-serif;"">
      <div style=""max-width:900px; margin:0 auto; text-align:center;"">
        <p style=""font-size:18px; line-height:1.6;"">
          In this task, you will be presented with <strong>90 words</strong> arranged <strong>outside a circle</strong>.<br>
          Your job is to <strong>drag these words into the circle</strong> and <strong>rearrange them</strong> based on their <strong>meaning similarity</strong>.<br><br>
          Words that are <strong>similar in meaning</strong> should be placed <strong>closer together</strong>.<br>
          Words that are <strong>different in meaning</strong> should be placed <strong>farther apart</strong>.<br><br>
          You can place the words <strong>anywhere inside the circle</strong>. There is no single correct answer — 
          we are interested in <strong>your personal judgment</strong> of how these words relate to each other.<br><br>
          <strong>You must move all words into the circle before you can finish.</strong><br>
          After the initial arrangement, you will arrange words from specific categories.
        </p>
        <p style=""font-size:16px; margin-top:30px;""><em>Press any key to continue.</em></p>
      </div>
    </div>
  "," ","html-keyboard-response","3","2.1.0","191537","opf25stbb7_f7u3vi","","","","","","","",""
"","3328","","","fullscreen","4","2.1.0","195868","opf25stbb7_f7u3vi","true","{""placements"":[{""word"":""骄傲"",""x"":479,""y"":213.3,""cx"":498,""cy"":230.7,""angle_rad"":-0.678,""angle_deg"":321.1},{""word"":""冰箱"",""x"":556,""y"":482.3,""cx"":575,""cy"":499.7,""angle_rad"":0.587,""angle_deg"":33.6},{""word"":""兔子"",""x"":132,""y"":490.3,""cx"":151,""cy"":507.7,""angle_rad"":2.471,""angle_deg"":141.6},{""word"":""反感"",""x"":506,""y"":178.3,""cx"":525,""cy"":195.7,""angle_rad"":-0.723,""angle_deg"":318.6},{""word"":""协议"",""x"":329,""y"":87.3,""cx"":348,""cy"":104.7,""angle_rad"":-1.579,""angle_deg"":269.5},{""word"":""嘴唇"",""x"":168,""y"":209.3,""cx"":187,""cy"":226.7,""angle_rad"":-2.494,""angle_deg"":217.1},{""word"":""剪刀"",""x"":312,""y"":601.3,""cx"":331,""cy"":618.7,""angle_rad"":1.641,""angle_deg"":94},{""word"":""长颈鹿"",""x"":135,""y"":480.3,""cx"":161,""cy"":497.7,""angle_rad"":2.478,""angle_deg"":142},{""word"":""制度"",""x"":359,""y"":358.3,""cx"":378,""cy"":375.7,""angle_rad"":0.743,""angle_deg"":42.5},{""word"":""过失"",""x"":350,""y"":135.3,""cx"":369,""cy"":152.7,""angle_rad"":-1.475,""angle_deg"":275.5},{""word"":""友情"",""x"":540,""y"":194.3,""cx"":559,""cy"":211.7,""angle_rad"":-0.585,""angle_deg"":326.5},{""word"":""方法"",""x"":357,""y"":357.3,""cx"":376,""cy"":374.7,""angle_rad"":0.76,""angle_deg"":43.5},{""word"":""蚂蚁"",""x"":550,""y"":479.3,""cx"":569,""cy"":496.7,""angle_rad"":0.59,""angle_deg"":33.8},{""word"":""沮丧"",""x"":460,""y"":193.3,""cx"":479,""cy"":210.7,""angle_rad"":-0.824,""angle_deg"":312.8},{""word"":""沙发"",""x"":500,""y"":498.3,""cx"":519,""cy"":515.7,""angle_rad"":0.776,""angle_deg"":44.4},{""word"":""暴力"",""x"":540,""y"":168.3,""cx"":559,""cy"":185.7,""angle_rad"":-0.666,""angle_deg"":321.8},{""word"":""筷子"",""x"":305,""y"":578.3,""cx"":324,""cy"":595.7,""angle_rad"":1.676,""angle_deg"":96},{""word"":""概念"",""x"":342,""y"":363.3,""cx"":361,""cy"":380.7,""angle_rad"":1.227,""angle_deg"":70.3},{""word"":""麻雀"",""x"":115,""y"":479.3,""cx"":134,""cy"":496.7,""angle_rad"":2.545,""angle_deg"":145.8},{""word"":""椅子"",""x"":522,""y"":494.3,""cx"":541,""cy"":511.7,""angle_rad"":0.703,""angle_deg"":40.3},{""word"":""买卖"",""x"":354,""y"":352.3,""cx"":373,""cy"":369.7,""angle_rad"":0.708,""angle_deg"":40.6},{""word"":""魔力"",""x"":330,""y"":342.3,""cx"":349,""cy"":359.7,""angle_rad"":1.673,""angle_deg"":95.8},{""word"":""结果"",""x"":347,""y"":359.3,""cx"":366,""cy"":376.7,""angle_rad"":1.031,""angle_deg"":59.1},{""word"":""敌意"",""x"":314,""y"":338.3,""cx"":333,""cy"":355.7,""angle_rad"":2.818,""angle_deg"":161.4},{""word"":""纠纷"",""x"":321,""y"":372.3,""cx"":340,""cy"":389.7,""angle_rad"":1.817,""angle_deg"":104.1},{""word"":""关系"",""x"":354,""y"":115.3,""cx"":373,""cy"":132.7,""angle_rad"":-1.465,""angle_deg"":276},{""word"":""铅笔"",""x"":315,""y"":608.3,""cx"":334,""cy"":625.7,""angle_rad"":1.629,""angle_deg"":93.3},{""word"":""愤怒"",""x"":500,""y"":200.3,""cx"":519,""cy"":217.7,""angle_rad"":-0.664,""angle_deg"":321.9},{""word"":""团队"",""x"":326,""y"":149.3,""cx"":345,""cy"":166.7,""angle_rad"":-1.598,""angle_deg"":268.4},{""word"":""洗衣机"",""x"":520,""y"":520.3,""cx"":546,""cy"":537.7,""angle_rad"":0.764,""angle_deg"":43.8},{""word"":""大腿"",""x"":204,""y"":232.3,""cx"":223,""cy"":249.7,""angle_rad"":-2.473,""angle_deg"":218.3},{""word"":""慈善"",""x"":325,""y"":134.3,""cx"":344,""cy"":151.7,""angle_rad"":-1.601,""angle_deg"":268.3},{""word"":""手指"",""x"":185,""y"":228.3,""cx"":204,""cy"":245.7,""angle_rad"":-2.521,""angle_deg"":215.5},{""word"":""性质"",""x"":323,""y"":354.3,""cx"":342,""cy"":371.7,""angle_rad"":1.924,""angle_deg"":110.2},{""word"":""猫"",""x"":123,""y"":498.3,""cx"":135,""cy"":515.7,""angle_rad"":2.485,""angle_deg"":142.4},{""word"":""眼睛"",""x"":190,""y"":235.3,""cx"":209,""cy"":252.7,""angle_rad"":-2.538,""angle_deg"":214.6},{""word"":""床"",""x"":480,""y"":501.3,""cx"":492,""cy"":518.7,""angle_rad"":0.871,""angle_deg"":49.9},{""word"":""鼠标"",""x"":315,""y"":584.3,""cx"":334,""cy"":601.7,""angle_rad"":1.634,""angle_deg"":93.6},{""word"":""微波炉"",""x"":513,""y"":480.3,""cx"":539,""cy"":497.7,""angle_rad"":0.663,""angle_deg"":38},{""word"":""原因"",""x"":333,""y"":379.3,""cx"":352,""cy"":396.7,""angle_rad"":1.528,""angle_deg"":87.5},{""word"":""锤子"",""x"":309,""y"":574.3,""cx"":328,""cy"":591.7,""angle_rad"":1.662,""angle_deg"":95.2},{""word"":""勺子"",""x"":330,""y"":582.3,""cx"":349,""cy"":599.7,""angle_rad"":1.575,""angle_deg"":90.2},{""word"":""缘分"",""x"":342,""y"":373.3,""cx"":361,""cy"":390.7,""angle_rad"":1.307,""angle_deg"":74.9},{""word"":""胳膊"",""x"":177,""y"":216.3,""cx"":196,""cy"":233.7,""angle_rad"":-2.495,""angle_deg"":217.1},{""word"":""老鼠"",""x"":124,""y"":507.3,""cx"":143,""cy"":524.7,""angle_rad"":2.441,""angle_deg"":139.8},{""word"":""兴奋"",""x"":496,""y"":206.3,""cx"":515,""cy"":223.7,""angle_rad"":-0.653,""angle_deg"":322.6},{""word"":""耳朵"",""x"":167,""y"":244.3,""cx"":186,""cy"":261.7,""angle_rad"":-2.648,""angle_deg"":208.3},{""word"":""社会"",""x"":361,""y"":332.3,""cx"":380,""cy"":349.7,""angle_rad"":-0.01,""angle_deg"":359.4},{""word"":""牙刷"",""x"":305,""y"":581.3,""cx"":324,""cy"":598.7,""angle_rad"":1.675,""angle_deg"":96},{""word"":""过程"",""x"":332,""y"":384.3,""cx"":351,""cy"":401.7,""angle_rad"":1.551,""angle_deg"":88.9},{""word"":""光彩"",""x"":513,""y"":196.3,""cx"":532,""cy"":213.7,""angle_rad"":-0.643,""angle_deg"":323.2},{""word"":""空调"",""x"":506,""y"":469.3,""cx"":525,""cy"":486.7,""angle_rad"":0.663,""angle_deg"":38},{""word"":""乌龟"",""x"":122,""y"":499.3,""cx"":141,""cy"":516.7,""angle_rad"":2.468,""angle_deg"":141.4},{""word"":""地位"",""x"":283,""y"":113.3,""cx"":302,""cy"":130.7,""angle_rad"":-1.786,""angle_deg"":257.7},{""word"":""创伤"",""x"":356,""y"":129.3,""cx"":375,""cy"":146.7,""angle_rad"":-1.448,""angle_deg"":277},{""word"":""死亡"",""x"":473,""y"":168.3,""cx"":492,""cy"":185.7,""angle_rad"":-0.858,""angle_deg"":310.8},{""word"":""快乐"",""x"":483,""y"":187.3,""cx"":502,""cy"":204.7,""angle_rad"":-0.763,""angle_deg"":316.3},{""word"":""身份"",""x"":350,""y"":349.3,""cx"":369,""cy"":366.7,""angle_rad"":0.721,""angle_deg"":41.3},{""word"":""婚姻"",""x"":293,""y"":146.3,""cx"":312,""cy"":163.7,""angle_rad"":-1.772,""angle_deg"":258.5},{""word"":""错误"",""x"":321,""y"":396.3,""cx"":340,""cy"":413.7,""angle_rad"":1.726,""angle_deg"":98.9},{""word"":""脚踝"",""x"":182,""y"":239.3,""cx"":201,""cy"":256.7,""angle_rad"":-2.582,""angle_deg"":212.1},{""word"":""老虎"",""x"":110,""y"":482.3,""cx"":129,""cy"":499.7,""angle_rad"":2.546,""angle_deg"":145.9},{""word"":""冷漠"",""x"":531,""y"":186.3,""cx"":550,""cy"":203.7,""angle_rad"":-0.632,""angle_deg"":323.8},{""word"":""疾病"",""x"":326,""y"":97.3,""cx"":345,""cy"":114.7,""angle_rad"":-1.592,""angle_deg"":268.8},{""word"":""扫帚"",""x"":317,""y"":609.3,""cx"":336,""cy"":626.7,""angle_rad"":1.621,""angle_deg"":92.9},{""word"":""难过"",""x"":485,""y"":155.3,""cx"":504,""cy"":172.7,""angle_rad"":-0.856,""angle_deg"":311},{""word"":""钥匙"",""x"":313,""y"":590.3,""cx"":332,""cy"":607.7,""angle_rad"":1.641,""angle_deg"":94},{""word"":""天堂"",""x"":354,""y"":66.3,""cx"":373,""cy"":83.7,""angle_rad"":-1.485,""angle_deg"":274.9},{""word"":""义务"",""x"":301,""y"":358.3,""cx"":320,""cy"":375.7,""angle_rad"":2.433,""angle_deg"":139.4},{""word"":""数据"",""x"":330,""y"":135.3,""cx"":349,""cy"":152.7,""angle_rad"":-1.576,""angle_deg"":269.7},{""word"":""爱心"",""x"":454,""y"":142.3,""cx"":473,""cy"":159.7,""angle_rad"":-0.997,""angle_deg"":302.9},{""word"":""内容"",""x"":341,""y"":342.3,""cx"":360,""cy"":359.7,""angle_rad"":0.77,""angle_deg"":44.1},{""word"":""现象"",""x"":335,""y"":351.3,""cx"":354,""cy"":368.7,""angle_rad"":1.36,""angle_deg"":77.9},{""word"":""柜子"",""x"":540,""y"":474.3,""cx"":559,""cy"":491.7,""angle_rad"":0.596,""angle_deg"":34.1},{""word"":""奇迹"",""x"":483,""y"":212.3,""cx"":502,""cy"":229.7,""angle_rad"":-0.669,""angle_deg"":321.6},{""word"":""恐惧"",""x"":496,""y"":196.3,""cx"":515,""cy"":213.7,""angle_rad"":-0.69,""angle_deg"":320.4},{""word"":""膝盖"",""x"":162,""y"":240.3,""cx"":181,""cy"":257.7,""angle_rad"":-2.642,""angle_deg"":208.6},{""word"":""舒心"",""x"":476,""y"":211.3,""cx"":495,""cy"":228.7,""angle_rad"":-0.697,""angle_deg"":320.1},{""word"":""债务"",""x"":323,""y"":108.3,""cx"":342,""cy"":125.7,""angle_rad"":-1.606,""angle_deg"":268},{""word"":""大象"",""x"":113,""y"":481.3,""cx"":132,""cy"":498.7,""angle_rad"":2.543,""angle_deg"":145.7},{""word"":""作用"",""x"":353,""y"":360.3,""cx"":372,""cy"":377.7,""angle_rad"":0.899,""angle_deg"":51.5},{""word"":""纪律"",""x"":356,""y"":378.3,""cx"":375,""cy"":395.7,""angle_rad"":1.07,""angle_deg"":61.3},{""word"":""电视"",""x"":535,""y"":479.3,""cx"":554,""cy"":496.7,""angle_rad"":0.623,""angle_deg"":35.7},{""word"":""肩膀"",""x"":198,""y"":224.3,""cx"":217,""cy"":241.7,""angle_rad"":-2.458,""angle_deg"":219.2},{""word"":""鼻子"",""x"":189,""y"":226.3,""cx"":208,""cy"":243.7,""angle_rad"":-2.499,""angle_deg"":216.8},{""word"":""斧头"",""x"":306,""y"":594.3,""cx"":325,""cy"":611.7,""angle_rad"":1.666,""angle_deg"":95.5},{""word"":""风景"",""x"":292,""y"":73.3,""cx"":311,""cy"":90.7,""angle_rad"":-1.72,""angle_deg"":261.4},{""word"":""熊猫"",""x"":99,""y"":474.3,""cx"":118,""cy"":491.7,""angle_rad"":2.593,""angle_deg"":148.6},{""word"":""骗局"",""x"":348,""y"":349.3,""cx"":367,""cy"":366.7,""angle_rad"":0.776,""angle_deg"":44.5},{""word"":""桌子"",""x"":532,""y"":488.3,""cx"":551,""cy"":505.7,""angle_rad"":0.659,""angle_deg"":37.8}],""n_words"":90,""words"":[""骄傲"",""冰箱"",""兔子"",""反感"",""协议"",""嘴唇"",""剪刀"",""长颈鹿"",""制度"",""过失"",""友情"",""方法"",""蚂蚁"",""沮丧"",""沙发"",""暴力"",""筷子"",""概念"",""麻雀"",""椅子"",""买卖"",""魔力"",""结果"",""敌意"",""纠纷"",""关系"",""铅笔"",""愤怒"",""团队"",""洗衣机"",""大腿"",""慈善"",""手指"",""性质"",""猫"",""眼睛"",""床"",""鼠标"",""微波炉"",""原因"",""锤子"",""勺子"",""缘分"",""胳膊"",""老鼠"",""兴奋"",""耳朵"",""社会"",""牙刷"",""过程"",""光彩"",""空调"",""乌龟"",""地位"",""创伤"",""死亡"",""快乐"",""身份"",""婚姻"",""错误"",""脚踝"",""老虎"",""冷漠"",""疾病"",""扫帚"",""难过"",""钥匙"",""天堂"",""义务"",""数据"",""爱心"",""内容"",""现象"",""柜子"",""奇迹"",""恐惧"",""膝盖"",""舒心"",""债务"",""大象"",""作用"",""纪律"",""电视"",""肩膀"",""鼻子"",""斧头"",""风景"",""熊猫"",""骗局"",""桌子""],""distance_matrix"":[[0,0.5123076540117888,0.8151126061946026,0.07783008144587397,0.3575743073261804,0.5698856978525472,0.7752996342058192,0.789200470342683,0.3434064861808825,0.2743119040984744,0.11413460468898744,0.34436048182268164,0.5040257227792646,0.04718450471045314,0.5233155542839728,0.13610167284145766,0.7419931672348181,0.37094392435222906,0.8277127241994391,0.5205463257885729,0.34105187448429664,0.35976109566345515,0.35928356868822003,0.3780524924480042,0.40968229555706953,0.2892277608508813,0.7850354627981937,0.041858544812481024,0.3021550131634048,0.5693399509131509,0.5046583217074896,0.3154965894398286,0.5391931430585938,0.3840938318809089,0.8474043221918229,0.5308092477886589,0.5275383625259165,0.7443518870137705,0.4944676520127979,0.403995272222507,0.7321685155680053,0.7301808511321862,0.38475977836656533,0.5532685094554683,0.8463387604774089,0.03021576847803782,0.5745155127265598,0.3053628605314262,0.7469909250669691,0.41216354604923455,0.06641318451086943,0.4710292120041868,0.8398808438049286,0.40208887003697813,0.27098907342353035,0.08003228621438437,0.044823390802399915,0.341992692354724,0.3608962135118158,0.44216969223342456,0.5461150563917379,0.838422199086564,0.10436303462068118,0.3503907888805793,0.7853350778780849,0.10384245444531487,0.755964020825039,0.3521584526824563,0.41969677368618186,0.30646132190838676,0.135125133143027,0.3446778998142022,0.3641234069400527,0.4906023071496618,0.0039152971527356755,0.04064778140722724,0.5830197173933679,0.002960856144670845,0.34309280789061775,0.832867130273007,0.35335584629832534,0.3758366868564373,0.49760495505945235,0.5149110543331202,0.5316484636450675,0.7679678356545631,0.42710223403205116,0.8464587778494774,0.3445412013833831,0.5127819756243887],[0.5123076540117888,0,0.7783648850745393,0.5644615044554733,0.8364653044273025,0.8712044959246029,0.4969430650274603,0.7597932584378362,0.4255838297804158,0.7404957492621838,0.5282421013780629,0.42968779130043244,0.008682571996883486,0.557902092242494,0.1037158732031009,0.5761219352077422,0.49189067407552095,0.4478692417889665,0.8095948599356498,0.06280302332315855,0.4393039342488944,0.48657471529083984,0.4435291519669484,0.5156253562485449,0.47481102837903977,0.7688553754213465,0.49782539094742095,0.5265130749384488,0.7426496212233565,0.08446455047519921,0.7925091011607549,0.7665893553631432,0.8254701544889694,0.48656431002897893,0.808268204581494,0.8105873888742345,0.15333431437569528,0.4789156601733546,0.06280302332315855,0.4493016930749708,0.48238434159098015,0.4520635559582938,0.43920028295031366,0.8502028118055392,0.7943117074396864,0.5171816201270755,0.8372967322644557,0.4500031050580612,0.49389386537894703,0.4472022241354236,0.529662734476056,0.09158419418749167,0.797280853757439,0.842788583886832,0.7445155371374507,0.5952588466126371,0.5567412198443973,0.4485014331565148,0.7831878366929558,0.45779198449399067,0.8188153328364486,0.818796726285769,0.544119685846517,0.8233510432085377,0.49542249721506554,0.6133952726079769,0.48670302870062065,0.8491327711826103,0.5192180004684412,0.7599825463213844,0.6509257329697551,0.46945052352939365,0.4700862192815866,0.02930064789473561,0.5121065945847338,0.535216327799019,0.8490131301740872,0.5173937744684582,0.808915062692554,0.8132663973888532,0.4330763567006306,0.41202449662837404,0.035431774942632534,0.8100923204890484,0.8214985386795373,0.5014975033924276,0.8940427343560935,0.8392113508017116,0.4516044089381764,0.041933150625552994],[0.8151126061946026,0.7783648850745393,0,0.8945028902790305,0.8235422321885195,0.5187495221596375,0.3862976042316221,0.02239175878114576,0.4805618169677473,0.7645645857159389,0.9258737396734903,0.4783127774153937,0.7674277650378416,0.8123146371631659,0.6751143989320791,0.9548158946491779,0.3542500752184566,0.4488923471752287,0.03365265007065209,0.7155628945663952,0.478362164576305,0.4521829330357127,0.4606022297916247,0.43360162536833385,0.4072067533680196,0.7999597869858279,0.39786377451651384,0.8603522894640285,0.7198082063661114,0.7268436453036995,0.4902788297757164,0.7430960446429982,0.4892622830387724,0.42870969628589195,0.029300647894735656,0.4785772924652258,0.6254894658242869,0.3757067332688041,0.7120744006123387,0.41974898171785274,0.35761666677767945,0.39894215453019094,0.43963008565372197,0.5083744159609725,0.03095991070687954,0.8477199360148793,0.4545379685903195,0.509382923731525,0.356792118191289,0.41373891802948615,0.8837938057301404,0.6871052749177678,0.021122049265432312,0.7452447088357484,0.7797920995781625,0.8612197361037272,0.851422655413705,0.4750952361712203,0.6967366245642835,0.38558187305592373,0.4682846589391942,0.03948186145391348,0.9213572747606475,0.8045508210119975,0.40196313473636347,0.8937718327358557,0.3776558461456905,0.87891951526269,0.39177050707385386,0.7459232681125763,0.8706504014246509,0.468587196486885,0.45002184450494553,0.7492978594396361,0.8220341335513889,0.8591864549008436,0.46065350064142224,0.8131144400947511,0.7839222257561232,0.035082481802733566,0.4691485383688949,0.4581566265700598,0.7397756429069552,0.5017263348401383,0.49438230896073265,0.3701396747751095,0.8199805048561993,0.06394404401516855,0.47200250803801974,0.7339756554499559],[0.07783008144587397,0.5644615044554733,0.8945028902790305,0,0.36333664308622987,0.6222460854123201,0.8545092606468871,0.8685318845343745,0.42488609663801824,0.2947258793652933,0.06560809495558667,0.4258095571805213,0.5572961922464871,0.08553822166137838,0.5865392167284534,0.06166810013262669,0.8218611332048004,0.4522314210448949,0.9062806432556118,0.5798054600250497,0.42238315491199896,0.4399483315253273,0.44059944880550783,0.45721312221362137,0.49066766515871707,0.29974368416363484,0.8639991443672278,0.03836451499252623,0.3325368545021698,0.6281943664040571,0.5620741335304631,0.33982149399622175,0.5954178103910578,0.46453728995233307,0.926641715974498,0.5884634405638696,0.595068602353997,0.8237457073977033,0.5538391385977697,0.48537318213671665,0.8119644767672786,0.8089715598145732,0.46619039329188794,0.6070663273795579,0.9260292146498548,0.05114185448990003,0.6332120671313697,0.38638479867839726,0.8268082331186075,0.49358620733798564,0.03192792334005586,0.5329555267941154,0.9192961928241076,0.4246678219574783,0.28731744383046764,0.05990102800391861,0.041858544812481024,0.4231686435971149,0.3935209786935842,0.5235832924454937,0.6043093845144861,0.916962725484984,0.044718121243959595,0.3603174187033192,0.8641970530313882,0.0537470397849194,0.8353291059523001,0.3444972512044195,0.49940967814412196,0.3304263581482413,0.11294517671729341,0.42533023993188396,0.4448958637539966,0.5457654612143077,0.07201123850597131,0.03428482670361927,0.6409160110525667,0.07855691850576395,0.3576354916065527,0.9114533343914648,0.43478602675405,0.4573459191866458,0.553967220993221,0.5706056450099584,0.5875668239450408,0.8475281846045672,0.4359014830082453,0.9243816868935901,0.4256630458916866,0.5700013057934421],[0.3575743073261804,0.8364653044273025,0.8235422321885195,0.36333664308622987,0,0.3688319188497895,0.9447163242356009,0.7989202191486077,0.49912568648165045,0.0929311188175832,0.4325972280027015,0.4968989079082061,0.8261835185104662,0.30707476429580416,0.8172364131726755,0.41311111565748426,0.9028639289005101,0.505857762274255,0.8199206337286273,0.8269883913122006,0.4871778430866598,0.466570218981766,0.49901407443389767,0.4600158746139298,0.5220977263678289,0.0655344406901347,0.9574538032811353,0.37429229005561543,0.11078197663768782,0.8743474430215571,0.34935676856118203,0.08329948396683955,0.36797277598943295,0.48882055242792516,0.8499897077308017,0.37074415924147025,0.8046496962860097,0.9132112620986849,0.8021172012898625,0.5348501854900931,0.8951633605312717,0.9091612908230645,0.5242794203860935,0.3639615637814881,0.8581867585173953,0.37447219514128866,0.4123393361136859,0.45196280722184407,0.9083897819025629,0.5440482881731413,0.3907026983876046,0.7727195888023457,0.846602776334789,0.093754768693645,0.08838938494047156,0.30099638510256976,0.3349305917512551,0.4810251068132746,0.12377079727437591,0.5663409352437834,0.3862627209937542,0.8292125824552555,0.41116053018296,0.015565079590865828,0.9592054509706579,0.3101402446780299,0.9243816868935902,0.05652215660284025,0.4987332436174505,0.08484949913612953,0.2481562698107232,0.46708701252577106,0.4832895543450017,0.8091765904503228,0.36208824750648466,0.36407717330521705,0.4139914032079086,0.3509666055977539,0.03658828148752046,0.8249265199904842,0.5017027834456176,0.5352605005660225,0.8129541257315517,0.34587173081226524,0.36013051427660686,0.9322506540792452,0.06926592628720518,0.8265194890541258,0.48074437798042785,0.8251686352375566],[0.5698856978525472,0.8712044959246029,0.5187495221596375,0.6222460854123201,0.3688319188497895,0,0.766445851765917,0.4983675900213902,0.4430422023647066,0.3586271147481227,0.6828880813810887,0.439000589847959,0.8589735989311543,0.5356074464111835,0.8080357122308709,0.6864846865233147,0.7221851367678515,0.42481864179063733,0.5037309102722143,0.8344125457030331,0.42897702603783866,0.3828464889362925,0.4269916979958847,0.35559671110867574,0.40858251489991937,0.3806362007616813,0.7804711223202498,0.6087900555549166,0.30798720839067234,0.8722320439825604,0.07509328384600267,0.3171809259349637,0.04332817336129188,0.38772948456853756,0.5378257761952697,0.059120761625181435,0.774985239167549,0.7390983353130515,0.8155423744603868,0.4332009219352247,0.7178996108150132,0.7462498468410401,0.4372571301700436,0.01733812072534922,0.5518225369770896,0.6012138874457346,0.060882852876872895,0.4183653012967085,0.7273741561248396,0.43860093315966775,0.6329904320813136,0.7827101160313131,0.5377975143592059,0.2725693237943648,0.3730937362504449,0.5638326456744746,0.5786298512135245,0.4197570131514019,0.2544513541448581,0.44188356422735653,0.057363516858626895,0.5109977118913022,0.6670757588768307,0.3534653668460533,0.7834816745358928,0.5893242934812215,0.7480909943771845,0.42897702603783866,0.3646315938916124,0.32475450447958176,0.5380141507544475,0.3987309352292809,0.4005648466377747,0.8385978543433519,0.5772411535097011,0.6016634910018932,0.05454091079512832,0.5643178266875186,0.33748201319427085,0.5080688179198307,0.43669374965152313,0.46249914335047304,0.8365361393321233,0.05816595415172858,0.04613755825033409,0.7505366119256032,0.3357130626951257,0.5013022416876532,0.4168396118017124,0.8420791729176391],[0.7752996342058192,0.4969430650274603,0.3862976042316221,0.8545092606468871,0.9447163242356009,0.766445851765917,0,0.38111816241724095,0.45274209688825023,0.8585319523647026,0.8566227779195934,0.45386952357366095,0.4895209257492654,0.7966925796071493,0.39163288737962737,0.898758101737219,0.04064778140722724,0.438689349868901,0.4236304894433977,0.43095328571936425,0.46198821288253406,0.4750952361712204,0.4472361640965731,0.48133372085955595,0.4189450676132266,0.8959027383541045,0.01035625368163296,0.813047819765138,0.8302612860249428,0.4200059120795486,0.7053457429486464,0.857857215991548,0.7229530984262087,0.45226498664601106,0.40463292609486196,0.7077757730388116,0.34582794794176086,0.028146462959223136,0.4400747996061028,0.407537686696131,0.04640983258225142,0.04457740468233225,0.42039903502975096,0.7486878887243109,0.3839315533377921,0.7999005402540259,0.7069004837429875,0.5005474175942255,0.03538828404704753,0.39818547674862886,0.8301103866332786,0.4290359736027136,0.3939958766944207,0.8978381265843859,0.8705181445271023,0.8482350540713182,0.8223470896970296,0.4662880920735462,0.8361252137171703,0.37472391856977055,0.7056310738270175,0.42866250328871713,0.8616541158532771,0.9261151720044091,0.01370927795990568,0.8785052019305232,0.016680882857986135,0.9859604694716965,0.4448958637539967,0.856320317508803,0.8823517983655657,0.47692787649411317,0.459292904749665,0.4776031602043681,0.7799331590977976,0.8166541580661693,0.7172276961301434,0.7765276155421197,0.9056974352327255,0.424854354503053,0.4471343365476646,0.41548283806715997,0.46507446249106166,0.7226417972100461,0.7241128670926105,0.013313827402941408,0.9707142277704053,0.453635336994627,0.46575230827169617,0.45241040903978486],[0.789200470342683,0.7597932584378362,0.02239175878114576,0.8685318845343745,0.7989202191486077,0.4983675900213902,0.38111816241724095,0,0.4553980843019567,0.7392242330952407,0.9001269018379516,0.4530996025365576,0.74872178895918,0.7862676828203167,0.6573466613510727,0.9289199712479568,0.34705180239544503,0.423614572034356,0.04613755825033409,0.6975591312966294,0.4530028057240439,0.42638719576322315,0.43530150287344116,0.4076327807497285,0.38184218049003477,0.7747231463021899,0.3931783574905989,0.8344592090343554,0.694694380828893,0.7101260702481295,0.46773310952110697,0.7181328663904517,0.46775114421099384,0.4030139221566572,0.05462845158773287,0.45671479242460694,0.6079482598363701,0.36855793975482537,0.6933954258636242,0.39475624323012876,0.34971781693448784,0.39075012213507704,0.4146056892100504,0.48742373417581125,0.05615389363666001,0.8218425953030877,0.43396311038016344,0.4837537400665016,0.3499342690160476,0.38888335676082286,0.85793418630475,0.6678839528669607,0.04718450471045322,0.721341315674959,0.7544224242596984,0.8351507391032492,0.8254147816225451,0.4496281534414485,0.6722752740194093,0.36095217715628997,0.4468287158082805,0.055439249337725975,0.8955189428864492,0.7798962690602271,0.39724080217688673,0.8677009885743432,0.37127058314764966,0.8540633330383506,0.365899004194287,0.72086975471641,0.8445905867796428,0.44290134457280633,0.4244136895042451,0.7303615597142876,0.7961336372948516,0.8332573071349149,0.44043867332193776,0.7871798376715912,0.7592251129997942,0.04982347883017478,0.44395099972003615,0.43349273262932775,0.7210598236535234,0.47957409205034984,0.47267406510476956,0.364640827164384,0.7962271757610032,0.07637785044480108,0.4465115566413691,0.7156763649869752],[0.3434064861808825,0.4255838297804158,0.4805618169677473,0.42488609663801824,0.49912568648165045,0.4430422023647066,0.45274209688825023,0.4553980843019567,0,0.40788901180099485,0.44673812169136623,0.0004353416377426362,0.4132742720832116,0.3530747485429579,0.36273850087617754,0.48023865569334784,0.41406467677390785,0.02898991329539945,0.4985707637725831,0.387794643033841,0.010714895075529998,0.0573913626025607,0.01851807380136049,0.08712493057714413,0.07099357368313197,0.4445318147542845,0.46443196094602185,0.38683789597313306,0.3865111960167432,0.42670338127079377,0.36468237402786546,0.4141297980448124,0.3968589123401571,0.06310920129027783,0.5134893545186178,0.38177601582823373,0.3335669831642602,0.42091195357363737,0.3688319188497895,0.057945635632648734,0.4051781009242734,0.4128458501611172,0.03812119884106742,0.42201583123652575,0.5094525171974569,0.37367546520177913,0.40809553360903517,0.044400929948030236,0.41943965561052027,0.0654361129214212,0.40850826680590824,0.3360035217437812,0.5048723567561564,0.4693642617263878,0.41865528393826,0.4049284928093143,0.38584387847906143,0.019783755548848404,0.4057765395873965,0.0954158492854717,0.38963631398515686,0.5092901177569444,0.44488828241331724,0.48146342041481477,0.465625513213234,0.4369215038544863,0.4324802875043192,0.5348786019902128,0.10327165917117807,0.41101704416804097,0.4314693944059388,0.04072442114454877,0.042415145731019566,0.3927668211987543,0.3495590011137159,0.3875687139590225,0.4197931527174357,0.3427837534565675,0.4621013957960223,0.5035163935453344,0.007975071484084332,0.03360708455811839,0.3901849775020351,0.3826000585883907,0.39322548544336594,0.4423679665754894,0.5362187893894003,0.521343651088328,0.02252183456224188,0.39538309412168177],[0.2743119040984744,0.7404957492621838,0.7645645857159389,0.2947258793652933,0.0929311188175832,0.3586271147481227,0.8585319523647026,0.7392242330952407,0.40788901180099485,0,0.3632022619771024,0.4059135586380773,0.7301206050489314,0.22563812355845178,0.72063503291081,0.35194335433341895,0.8174683713106918,0.417033656825656,0.7645911455778646,0.7304194697180268,0.3965573865813757,0.37982567372737974,0.4094354088722358,0.37651262397185514,0.4366319654944805,0.033924883980667946,0.8709731798522787,0.2977871989055779,0.04755086005578441,0.7777427871019782,0.31956212816980717,0.042452013725134366,0.3455992148970836,0.40323545460479937,0.7927674761237109,0.3442627564928416,0.7083610895519175,0.8268409920605734,0.7055855244964175,0.44737189840309366,0.8094108478702663,0.8214655676400339,0.4354641590999384,0.3485852952718743,0.7990091961420289,0.2957043636575639,0.3891171875985339,0.36017257614324577,0.8229726465528756,0.45670001886966904,0.31726570543296917,0.6761256772501314,0.7883894009928603,0.12635933104040983,0.011959745851956338,0.2311623813243914,0.25966194742952503,0.39095699543374557,0.1033670030611952,0.4805934189909379,0.3606862732926427,0.774373551813205,0.3430977112959195,0.07919536578626989,0.8725484180216381,0.24798741659472273,0.8381636971367439,0.12377079727437591,0.4173649435310126,0.033194461876450095,0.18853589577664273,0.37840867705172326,0.3956046016653007,0.712969470820411,0.27972141096433684,0.28811104421238165,0.39341822337190835,0.2676694184199531,0.06672781373020077,0.7697177123425797,0.41127938101012973,0.44457354369995217,0.7166141746119464,0.32113640891885653,0.337362374282327,0.8466507704109918,0.1528788297023183,0.7741833938670127,0.39097422998051345,0.7287219690950677],[0.11413460468898744,0.5282421013780629,0.9258737396734903,0.06560809495558667,0.4325972280027015,0.6828880813810887,0.8566227779195934,0.9001269018379516,0.44673812169136623,0.3632022619771024,0,0.448249415233001,0.5222141394175269,0.14385419353590842,0.5617614712202772,0.044259282501933464,0.8265440669266325,0.47637208904592604,0.9399801356744321,0.5505476969477935,0.4463717846738234,0.4700933974110946,0.4645699734472594,0.4904990926943346,0.5167537847454958,0.36897795867306227,0.8652524569299229,0.07090244265806456,0.39958779839304664,0.5979781286728633,0.6198917892789226,0.4079509792227924,0.6539759924078014,0.4935075530742066,0.9584351895740645,0.6461730696826744,0.5757875088349844,0.8266341795681976,0.5250228763035859,0.5082847484908138,0.8164053822347187,0.8099167809072825,0.4885442694942026,0.6669616719343472,0.9563704629407368,0.08041730352688024,0.6903273093072502,0.4131233546047597,0.8312679427198094,0.5158348730778024,0.046239835125237896,0.5073106785542538,0.9505504933547774,0.49323729795801424,0.35618309849075325,0.1288460269999817,0.10221721138507069,0.4485014331565148,0.460334797149978,0.5457437975592838,0.6617078601409683,0.9507197650293002,0.01851807380136049,0.4296053866115795,0.8651213355003263,0.12065086186628798,0.8380647183473205,0.412694777401743,0.530847422547397,0.39857456154496124,0.18164517821837367,0.45366136364738846,0.47249198100358464,0.5126700223140626,0.10654422101312011,0.07753752552400625,0.6985380876312096,0.11842923251211208,0.42677054077105625,0.945098140830196,0.4574381168063513,0.4761843212008855,0.5219715831375975,0.6294283479603057,0.646288189413922,0.8509174176105399,0.5051898990397022,0.9596521321997125,0.45136531993077444,0.5386886223349017],[0.34436048182268164,0.42968779130043244,0.4783127774153937,0.4258095571805213,0.4968989079082061,0.439000589847959,0.45386952357366095,0.4530996025365576,0.0004353416377426362,0.4059135586380773,0.448249415233001,0,0.4173770588338951,0.35345108346188636,0.36665736844051705,0.48146342041481477,0.41499576001562,0.026104667772976715,0.4960966080729003,0.39180920398478086,0.0070647992568864774,0.0532713768263428,0.015118305219420078,0.08300577094762468,0.06823306052381409,0.442627115501421,0.465625513213234,0.38793795349713933,0.3841289102052687,0.4306401940982906,0.3606582721234862,0.41176672322136354,0.3928011322046595,0.05925598037193137,0.5112256237176371,0.37770935060573585,0.3373125123472627,0.42203580262404833,0.372886080661073,0.056352469754928025,0.40616256682686713,0.41421932322309735,0.03675680337429965,0.4179743149247017,0.5073372989755682,0.37479580879926955,0.4039827592354483,0.04300154028865713,0.4203829963288935,0.06416994587188012,0.40973165520170085,0.3400590184252174,0.5026574178242199,0.4665195932836276,0.41677895436667656,0.40526542777175684,0.38653734207863505,0.01591516923161254,0.40293029364045435,0.09419005649526496,0.3855469256742712,0.50682128121705,0.4462092924246846,0.4791833664516965,0.46685217673220575,0.43731882674285316,0.43358995958620017,0.5329840436153666,0.09959984982382256,0.40872684792854713,0.43128569863758476,0.03675680337429965,0.03836451499252623,0.3968674027365605,0.35056363217133135,0.38856269551583195,0.41568156560802855,0.34366114121126706,0.45976277999802345,0.5010530050157406,0.005532410312741683,0.035082481802733566,0.3942694341817903,0.3785866449004944,0.3891821159101386,0.4433770371919669,0.5335888770285004,0.5187365028764492,0.01851807380136049,0.3994401933024001],[0.5040257227792646,0.008682571996883486,0.7674277650378416,0.5572961922464871,0.8261835185104662,0.8589735989311543,0.4895209257492654,0.74872178895918,0.4132742720832116,0.7301206050489314,0.5222141394175269,0.4173770588338951,0,0.5492330149618816,0.09495149769555333,0.5701346706293003,0.48361767127495686,0.4355106212431421,0.7985112218057162,0.05489028903617727,0.4270074905950443,0.4742563370896794,0.43118795650850555,0.5032883700678854,0.4624444275876557,0.7587056138577594,0.4906848631986773,0.5190228521992571,0.731833372785938,0.08300577094762475,0.7802867813433656,0.7558856721157364,0.813216441945322,0.4742029674589416,0.7974336918276765,0.7983225465457809,0.14399242823244918,0.4709754795262605,0.05166655666550723,0.4369369405562181,0.47403214457385556,0.4442851552731359,0.42682979045328673,0.8379697685715534,0.7836091141980538,0.5095154745823506,0.824971665486271,0.4378660060688894,0.4857172746827206,0.43484807098030753,0.5226439976839065,0.07952297038077905,0.7864635406503219,0.8317789574264721,0.7342798714836426,0.5871554199361849,0.5487930665042733,0.4362069645066304,0.7720293967316103,0.44550195643007723,0.8065239351595741,0.8077507659307985,0.5377786723156494,0.8129541257315517,0.48835077913554525,0.6057173186368132,0.47893327699183547,0.8393565872036891,0.5068479271565618,0.7493339903450086,0.642509987193608,0.4571614686120585,0.4577477658738723,0.016929802356024336,0.5039620845710838,0.5276183797936987,0.8366899317098574,0.5090348147098901,0.7983946299738957,0.8022079352885705,0.4207437205025083,0.3996552570150654,0.023973778021880627,0.7978835458035273,0.8092602615636675,0.4937537336462966,0.8834162724189165,0.8280685210080969,0.4393039342488944,0.033424263074306036],[0.04718450471045314,0.557902092242494,0.8123146371631659,0.08553822166137838,0.30707476429580416,0.5356074464111835,0.7966925796071493,0.7862676828203167,0.3530747485429579,0.22563812355845178,0.14385419353590842,0.35345108346188636,0.5492330149618816,0,0.5635898995560803,0.1508785534929632,0.7616840306601051,0.37793666087327027,0.8227257727813461,0.5630500914873359,0.34871559984259987,0.36097082979585904,0.3666344105232534,0.37577843730342775,0.41425187307880246,0.2390102148028096,0.8069981103736462,0.07119821301483181,0.2564069356226475,0.6118723156868431,0.47385769985085113,0.26800759019193604,0.5075402341071025,0.3861624142982775,0.8441354310635106,0.5002168265051247,0.5648115668879419,0.7653543493284432,0.5370213073910732,0.4116521059103366,0.7520973840862037,0.7526798762024379,0.39322548544336594,0.5199231795152812,0.844398127827177,0.06689664857126094,0.5447680474346547,0.3110167867888016,0.7668189055267176,0.420322845797416,0.09420742774929065,0.5123142447977408,0.8371248499014606,0.3545160097621408,0.22150793532884844,0.048275822729447436,0.0401463570926118,0.3483245414259386,0.3162468687248913,0.45002184450494553,0.5159526891709244,0.8333568543905865,0.12788025532381292,0.3002979698303411,0.807532798284808,0.0801946141608031,0.7770112974549023,0.30137565150091133,0.4188806884146878,0.25882768877325013,0.09101133687700891,0.34796689805347664,0.3678446485615072,0.5351058800375263,0.051327614913732805,0.06293076848773704,0.5526575631827134,0.04072442114454877,0.2936355333307061,0.8279192684685772,0.3620743008543467,0.38769038428237695,0.541568428587322,0.4828458959866702,0.49976444244620927,0.7884688280435731,0.37704447062573204,0.8399554230725009,0.3504628171700016,0.5563010970669496],[0.5233155542839728,0.1037158732031009,0.6751143989320791,0.5865392167284534,0.8172364131726755,0.8080357122308709,0.39163288737962737,0.6573466613510727,0.36273850087617754,0.72063503291081,0.5617614712202772,0.36665736844051705,0.09495149769555333,0.5635898995560803,0,0.6093311939279731,0.38500483946057223,0.3795595540113344,0.7071684462742822,0.03754787825387648,0.3770801983735861,0.42180807323777497,0.37751759153231207,0.44876834373153196,0.399992381031173,0.7521941223470558,0.3932297695252345,0.5458644841905128,0.715470686666748,0.06053959767769767,0.7302040213857739,0.7411261273362678,0.7614062689727861,0.4171023596469935,0.7044602464891077,0.7460139986960825,0.04640983258225142,0.3725382267611604,0.045932372072692344,0.3744721951412887,0.37540183981330905,0.3459981838671049,0.36784464856150734,0.787042221346773,0.6899057609505499,0.5348501854900932,0.7686616572508866,0.3955875669863166,0.3871382187353548,0.3707214519166194,0.5537567843746194,0.05092433541404264,0.6933978651937093,0.8113158661489657,0.7267784682884165,0.6069103961935152,0.5706944647942584,0.3862103902852383,0.7493723775325485,0.3762441836718457,0.7526439051341072,0.7161300677972937,0.5745155127265599,0.8024273427390578,0.3910173130550943,0.6294552053210397,0.38064062517527164,0.837246182275181,0.4450133581542961,0.7355069855213219,0.6582823383929634,0.4070908637171241,0.4038367459976438,0.0823363088478864,0.524665761820019,0.5532898804370389,0.7804667853833306,0.5274263180980624,0.7861299075634952,0.7106808979797598,0.36813744637834184,0.3419877732747592,0.06975376429564684,0.7483035792552958,0.7582437874552654,0.3954810837724709,0.8689002680949018,0.7371338549382557,0.3888357074755782,0.058138457272088634],[0.13610167284145766,0.5761219352077422,0.9548158946491779,0.06166810013262669,0.41311111565748426,0.6864846865233147,0.898758101737219,0.9289199712479568,0.48023865569334784,0.35194335433341895,0.044259282501933464,0.48146342041481477,0.5701346706293003,0.1508785534929632,0.6093311939279731,0,0.8678005037773565,0.508799292703306,0.9675014555294265,0.5984160279048526,0.47879937303908054,0.4992440358294596,0.49705513868829004,0.5178341269517865,0.5482511100715218,0.3529746433391436,0.9076679981636312,0.09077762129801145,0.3925093939424391,0.6458904165728743,0.6270819885722466,0.3977282438140153,0.6602649934262514,0.5233768557460173,0.9871401737302248,0.6534793803673827,0.6227158828250515,0.8684948426592992,0.5728633260344468,0.5414093584057296,0.8577368127361863,0.8523885391730682,0.5219036473199823,0.6715604798442849,0.9859398507872511,0.10352572112700326,0.6983080102699105,0.4440117738261472,0.8726046934586804,0.549306818164164,0.06804366892694245,0.5549269028726054,0.9795756389435912,0.48098651624049826,0.34317125405736304,0.11986889010940313,0.10711350420433735,0.48023865569334784,0.45361674562147614,0.5793185847025941,0.669371121650306,0.9782102235020328,0.033424263074306036,0.41211038558492985,0.90764001054159,0.10053400974201943,0.8799842753223429,0.3875122113027754,0.5593656721061974,0.38833287153059276,0.16199692178244385,0.4837955997459979,0.5030770214603956,0.5606175783578239,0.12910237985178807,0.09249013343788827,0.7059282713365059,0.13850172735619362,0.4115046943032379,0.9726563227982012,0.49057134507622346,0.5112058093027431,0.5699123786762322,0.6354055659085229,0.6523813637698566,0.8926304958818574,0.48606459748186964,0.9861803753824967,0.4829157902794498,0.5866198780220737],[0.7419931672348181,0.49189067407552095,0.3542500752184566,0.8218611332048004,0.9028639289005101,0.7221851367678515,0.04064778140722724,0.34705180239544503,0.41406467677390785,0.8174683713106918,0.8265440669266325,0.41499576001562,0.48361767127495686,0.7616840306601051,0.38500483946057223,0.8678005037773565,0,0.3986295105762114,0.39140915313915625,0.42542535368703277,0.4227700991821447,0.43396311038016355,0.407537686696131,0.4392156402288819,0.377348049701232,0.8549153486120198,0.054628451587732815,0.7806857707261683,0.788393694550578,0.4194517115104524,0.6610124005386925,0.8159387240297673,0.6786423316963132,0.41072992309866085,0.3747913160599798,0.6634560814627332,0.33711798109592633,0.017817872055600745,0.43204733477743107,0.3669098116649852,0.006743739387361631,0.04300154028865713,0.38046803528614775,0.704393009143973,0.3548623782895249,0.7674718666128608,0.6627573432467264,0.46157540980339884,0.0018441367709138943,0.3575225279172178,0.798432789166259,0.41797834756153124,0.3638921806140116,0.8547945327562874,0.8296534435547779,0.8134204074469776,0.788571856676029,0.4266954794641229,0.7932861083549467,0.3332390977831359,0.6613525506939978,0.397134758164082,0.8307505016866316,0.8841864999014843,0.05761367320515229,0.8440712484907857,0.022908245204166747,0.9448238937555435,0.40208887003697824,0.8145641684243882,0.8460106265004446,0.4365624479536114,0.4185707262390055,0.4702261731960273,0.7468550022245701,0.7839222257561234,0.673119971100625,0.7429707997058858,0.8636914145130631,0.3930069359198379,0.40796337158777013,0.37694173467018166,0.4580866670853056,0.678305818358256,0.6797877256288619,0.025875487897949093,0.9279093180457382,0.4218720095787488,0.42599955143793106,0.44663240552003153],[0.37094392435222906,0.4478692417889665,0.4488923471752287,0.4522314210448949,0.505857762274255,0.42481864179063733,0.438689349868901,0.423614572034356,0.02898991329539945,0.417033656825656,0.47637208904592604,0.026104667772976715,0.4355106212431421,0.37793666087327027,0.3795595540113344,0.508799292703306,0.3986295105762114,0,0.46642194261278797,0.406858986275039,0.026332098106550118,0.04091544436884064,0.008119963313152116,0.06553444069013473,0.038445308128554456,0.45419272717623477,0.450860579139928,0.4149470210413881,0.3920584933114731,0.44377242804682276,0.3472069070495258,0.41978110653811435,0.3781593827149833,0.035082481802733566,0.4817822638011864,0.36277098325678636,0.34720690704952584,0.4068962611243071,0.3891301741194063,0.030165577418660834,0.39015475610939393,0.4007835164229307,0.014753094167311154,0.40383674599764374,0.4781222366596984,0.40187509683209194,0.38658091495589053,0.06336328160974308,0.40408285238055414,0.039205253621855875,0.43709513557944585,0.3564239968274752,0.47328407512668524,0.47001084235459967,0.4286113717279639,0.4295308164818801,0.41219216810000553,0.026047538398617832,0.4065648103863976,0.06844553169295924,0.36961165607642116,0.47715071886878124,0.47383277397393603,0.4877387104584055,0.45230600791425285,0.4617982958736466,0.41833306870350156,0.5444672285717277,0.07248149587689535,0.4173568664687521,0.45321498731929516,0.035082481802733566,0.02193129325697831,0.414914525239233,0.3773034208903358,0.4152393698307768,0.39835469031864035,0.36999408896555086,0.46787015586571035,0.4713872732148057,0.01733812072534922,0.03415024943359055,0.41157021703346575,0.3654017765786946,0.37504731714071343,0.42744944850715505,0.5390020444332217,0.4889758934902866,0.02440078090509371,0.41572616497132664],[0.8277127241994391,0.8095948599356498,0.03365265007065209,0.9062806432556118,0.8199206337286273,0.5037309102722143,0.4236304894433977,0.04613755825033409,0.4985707637725831,0.7645911455778646,0.9399801356744321,0.4960966080729003,0.7985112218057162,0.8227257727813461,0.7071684462742822,0.9675014555294265,0.39140915313915625,0.46642194261278797,0,0.747384962207348,0.49542249721506554,0.4664544950900082,0.4779951676155165,0.44607698795304146,0.4243938290527001,0.7993417133106872,0.43520465507104245,0.8731323424404089,0.7186415261937087,0.7598489362159945,0.4804810468706137,0.7411352593282848,0.4768535727383306,0.44382942674795395,0.03139882145905397,0.4670581159808013,0.6577581109956001,0.41287850733780374,0.7431893953868922,0.43861246677625915,0.39466661257934366,0.4359517667062603,0.4583222778297854,0.4946144078714562,0.050549416045845265,0.860678913497818,0.4401667537587669,0.5247944795356412,0.39399587669442077,0.4331581066421655,0.8969096592967115,0.7176049884514144,0.035388284047047636,0.7389747058175314,0.779974387084762,0.8708390273835532,0.8626399972538372,0.49157490498245315,0.6926363796215593,0.4058803461077939,0.4558275384256522,0.0070647992568864774,0.9346584595408197,0.8010930978008836,0.43930393424889447,0.9032746142364912,0.41491452523923306,0.8762761333915003,0.4055148303611984,0.7444064410327115,0.8778206769591829,0.48368396594452834,0.4656943490663621,0.7801240915367058,0.83476144336005,0.8715484411935187,0.44550195643007723,0.8254455447826601,0.7806770992020311,0.0015277329227669212,0.48702193282705275,0.4781998734696039,0.7708491702420078,0.49084993395207077,0.48242631919038476,0.40745911414957453,0.8130894581079284,0.02722509186513041,0.48835077913554514,0.7654958458851759],[0.5205463257885729,0.06280302332315855,0.7155628945663952,0.5798054600250497,0.8269883913122006,0.8344125457030331,0.43095328571936425,0.6975591312966294,0.387794643033841,0.7304194697180268,0.5505476969477935,0.39180920398478086,0.05489028903617727,0.5630500914873359,0.03754787825387648,0.5984160279048526,0.42542535368703277,0.406858986275039,0.747384962207348,0,0.4019715183021994,0.4479106623475836,0.403903501396681,0.4757872868957847,0.4299192254287543,0.7608282014107325,0.43210976890929653,0.5400037809903385,0.7280437252896595,0.045137837723718995,0.7561497868977116,0.7531024081848786,0.7880565794440658,0.44501335815429605,0.7450675922378293,0.7728334662776061,0.08759183958857965,0.4125681607144505,0.02239175878114576,0.40430380441899283,0.41590451501895936,0.38580458890131974,0.3962853939163555,0.8133891915377188,0.7306695884576874,0.5295830239634354,0.7970260588108338,0.41750626704771115,0.4274533925193588,0.4011827043241217,0.5461150563917379,0.051048737873540466,0.7340240618468533,0.8257264621774216,0.7357645817164222,0.6042534468503211,0.5670117246756797,0.4111769254247845,0.7645557322245787,0.4086938619756864,0.7800698540965773,0.756418284082892,0.5645482921690105,0.8127979451163587,0.4297819489054346,0.6251867009846775,0.42045115661890753,0.8442296904092389,0.47485367030835923,0.7470928510499456,0.6574495477678101,0.43218779899809573,0.43044048033274757,0.04593237207269227,0.5213080241938014,0.5479521905847536,0.8088125208443597,0.5250518209608759,0.7971789455063218,0.7509445709435946,0.39405145828630495,0.36977560383918984,0.032916796180215764,0.7740828317954926,0.784586905223023,0.4352627663166393,0.8809997038621007,0.7772530260717796,0.41400361636154803,0.017817872055600745],[0.34105187448429664,0.4393039342488944,0.478362164576305,0.42238315491199896,0.4871778430866598,0.42897702603783866,0.46198821288253406,0.4530028057240439,0.010714895075529998,0.3965573865813757,0.4463717846738234,0.0070647992568864774,0.4270074905950443,0.34871559984259987,0.3770801983735861,0.47879937303908054,0.4227700991821447,0.026332098106550118,0.49542249721506554,0.4019715183021994,0,0.044259282501933464,0.014567749084253694,0.07446484163592286,0.06747246984964392,0.43337214116476513,0.47385769985085124,0.3849829652877868,0.3742158044596322,0.44102407564165863,0.3505588321075694,0.40187509683209194,0.38286408509246667,0.05359881937439933,0.5112190189973934,0.3678263410360155,0.3479668980534767,0.4301544555539975,0.3828772816839653,0.05939090925970325,0.41403618302552786,0.42276611185706664,0.04091544436884064,0.4079509792227924,0.5077896341581921,0.371900412429445,0.3945470736645396,0.03538828404704753,0.4281784777288689,0.06792504482978366,0.407090863717124,0.3500448489318566,0.5028051579495132,0.4560975927040916,0.40757076538263143,0.4004133905471363,0.3825516341518462,0.005532410312741683,0.3925093939424391,0.09773924885843639,0.3758322064389959,0.5061613504601911,0.44381422780418206,0.4693930174083904,0.47514140400409505,0.4325972280027015,0.4416812562536299,0.523734842939546,0.09467529198365264,0.3989294844969446,0.4252469980950088,0.026557818364831478,0.031398821459053865,0.40652336021362917,0.34738131787519133,0.38533280445746815,0.40622479523906985,0.34015793851128434,0.44989814984828247,0.5004125086419134,0.011179632428395023,0.044400929948030236,0.40407034208108883,0.36844372226470246,0.379168910492105,0.45128684147360015,0.5233768557460173,0.5176156281391618,0.008682571996883486,0.40941482832162573],[0.35976109566345515,0.48657471529083984,0.4521829330357127,0.4399483315253273,0.466570218981766,0.3828464889362925,0.4750952361712204,0.42638719576322315,0.0573913626025607,0.37982567372737974,0.4700933974110946,0.0532713768263428,0.4742563370896794,0.36097082979585904,0.42180807323777497,0.4992440358294596,0.43396311038016355,0.04091544436884064,0.4664544950900082,0.4479106623475836,0.044259282501933464,0,0.04064778140722724,0.026726009236426068,0.05407178585625305,0.41726396911360997,0.487631433522972,0.4047953061153098,0.3523065559400982,0.4859395896568267,0.304762552142125,0.3800029843299173,0.3364587421197464,0.02193129325697831,0.4846842697335996,0.321262021897337,0.39067251666991915,0.4434492981625318,0.4293659316830105,0.06476870646981898,0.425900606580889,0.43890455147750695,0.05761367320515229,0.3618278222544254,0.4830415747137073,0.3920584933114731,0.347051802395445,0.056380784183899565,0.43946512141453675,0.07385323714729491,0.4280327703710231,0.3965573865813757,0.4768960334340675,0.4274218394114373,0.39202841500167046,0.4116521059103366,0.39795269168566894,0.03538828404704753,0.3641465215782833,0.0972687409159139,0.3288346954321687,0.4772037613567524,0.4655240524965448,0.4481854480307226,0.4892795301079367,0.4442282145648144,0.45473089346681816,0.5072141678996164,0.0573913626025607,0.3780480380373483,0.43027594116099593,0.016597230938225047,0.01529827658089574,0.4537319999543026,0.36656093562179565,0.403995272222507,0.35875850065230547,0.3580493899918823,0.4280327703710231,0.4715483127448942,0.05017188693556707,0.07820468908401706,0.45101019037848705,0.3228228989998199,0.33302201351436966,0.4631370200573274,0.4973097583146851,0.48695262347552504,0.03192792334005586,0.4559422383929842],[0.35928356868822003,0.4435291519669484,0.4606022297916247,0.44059944880550783,0.49901407443389767,0.4269916979958847,0.4472361640965731,0.43530150287344116,0.01851807380136049,0.4094354088722358,0.4645699734472594,0.015118305219420078,0.43118795650850555,0.3666344105232534,0.37751759153231207,0.49705513868829004,0.407537686696131,0.008119963313152116,0.4779951676155165,0.403903501396681,0.014567749084253694,0.04064778140722724,0,0.06844553169295924,0.04991872379258774,0.4464662299476089,0.4592782134639378,0.40323545460479937,0.3855119751545953,0.4416659839976143,0.34900981440672874,0.4132212532484882,0.3805167223354552,0.04152129511716156,0.49348361235015714,0.36525432118561074,0.34640641235231084,0.4154179270334406,0.38563865586047136,0.04133284257253224,0.3989463777860068,0.4087474628093926,0.023726790474036124,0.4059799756208484,0.48988279784556027,0.3901547561093938,0.39021951339732447,0.05239895671247315,0.4129723824629181,0.050077090451743536,0.42534609368871557,0.35286020297676096,0.4850079707503542,0.4650708350124599,0.42078778798953764,0.4182806854882902,0.400678401477949,0.015565079590865828,0.4015395391199715,0.07970668241484925,0.37255630501307135,0.4887273242680901,0.46206123726536086,0.4810251068132746,0.46065350064142235,0.4505087987449668,0.42689693023717906,0.536797980901442,0.08116206051741058,0.41058628794090474,0.4424937488232404,0.029557374890665383,0.022908245204166747,0.41062322745178315,0.36562284927821653,0.40356961497985216,0.4019631347363634,0.3583688964853056,0.46130122312205324,0.48296820441138877,0.0075291725090323985,0.035082481802733566,0.40761624423277437,0.3670978847982314,0.3771739677657424,0.4362301569657935,0.5333989503791857,0.5004361203147566,0.014845071634192356,0.4122289649853519],[0.3780524924480042,0.5156253562485449,0.43360162536833385,0.45721312221362137,0.4600158746139298,0.35559671110867574,0.48133372085955595,0.4076327807497285,0.08712493057714413,0.37651262397185514,0.4904990926943346,0.08300577094762468,0.5032883700678854,0.37577843730342775,0.44876834373153196,0.5178341269517865,0.4392156402288819,0.06553444069013473,0.44607698795304146,0.4757872868957847,0.07446484163592286,0.026726009236426068,0.06844553169295924,0,0.060327448885973134,0.41411758857967146,0.4942320696613066,0.42341953563103424,0.34555539786267186,0.5129761899731059,0.27802436776251593,0.3730621438701446,0.3089513829221872,0.030165577418660834,0.4657667969549549,0.29358405710686764,0.4162326431639661,0.44997312033297526,0.4577145991277938,0.07964549007008759,0.4316256701711347,0.4472474768492868,0.07896938444303155,0.33461408084740096,0.46524854846479663,0.41092682754276466,0.3180858504743508,0.08368956555358271,0.4447442125876292,0.08740536316678983,0.4471456518555316,0.4249495738560998,0.45839588155040084,0.4151622420524082,0.3894417219226877,0.42556798480391095,0.41425187307880246,0.06573067840271427,0.35249756592271214,0.10404783176661903,0.3005942936589648,0.4567997311675017,0.4848966139562704,0.4412992926072089,0.4961034126350309,0.4581934430952975,0.46103785171559875,0.5033118478080383,0.04030125026301803,0.3718324960877359,0.44049992798699206,0.046646864485482324,0.041858544812481024,0.4827305484465906,0.3850573324534742,0.42201583123652575,0.3298303747810203,0.37592180474044273,0.42078778798953764,0.45121956344888037,0.07888705607799651,0.10327165917117807,0.47974999140959224,0.2962434371025138,0.3058246891399809,0.46864120065736853,0.48668915859929857,0.4654660650925524,0.062212206190124825,0.4843080894147898],[0.40968229555706953,0.47481102837903977,0.4072067533680196,0.49066766515871707,0.5220977263678289,0.40858251489991937,0.4189450676132266,0.38184218049003477,0.07099357368313197,0.4366319654944805,0.5167537847454958,0.06823306052381409,0.4624444275876557,0.41425187307880246,0.399992381031173,0.5482511100715218,0.377348049701232,0.038445308128554456,0.4243938290527001,0.4299192254287543,0.06747246984964392,0.05407178585625305,0.04991872379258774,0.060327448885973134,0,0.47414603328259647,0.4316686361720993,0.45410730473376915,0.40765758427868853,0.46408311640810807,0.33277952145322776,0.4352782613495564,0.36158117733430883,0.02971046387422502,0.44005947206143303,0.34587173081226524,0.3639615637814882,0.38742526820028056,0.41385703494047293,0.02193129325697831,0.3694840913526728,0.383935940137628,0.035082481802733566,0.3878250466065432,0.43672463847972937,0.441131124695626,0.3655998270469302,0.1006318557500664,0.3828640850924667,0.026332098106550118,0.47663767283221875,0.38152890068005924,0.4316608244873294,0.47905657672025587,0.4490613880460952,0.46546244064182646,0.44979317034733174,0.0645697031999151,0.4162731350320227,0.040571008960105674,0.3510864497802505,0.435127161439424,0.5136438620020903,0.5035331559316796,0.4334343860748712,0.497920318092596,0.39860415041749825,0.5638895710894472,0.04133284257253224,0.43368716492987675,0.4862728729807762,0.06280302332315855,0.04285563426366265,0.4418339500199385,0.41620834616885194,0.45401815127474837,0.37740605934200994,0.4084505090407206,0.48317780451210657,0.42936985824113066,0.05933697236843657,0.06179805924619837,0.4375385506722076,0.3511966706839641,0.35928356868822003,0.406643554179087,0.5502960602342508,0.44685513566098634,0.06172011476376035,0.4403506049368971],[0.2892277608508813,0.7688553754213465,0.7999597869858279,0.29974368416363484,0.0655344406901347,0.3806362007616813,0.8959027383541045,0.7747231463021899,0.4445318147542845,0.033924883980667946,0.36897795867306227,0.442627115501421,0.7587056138577594,0.2390102148028096,0.7521941223470558,0.3529746433391436,0.8549153486120198,0.45419272717623477,0.7993417133106872,0.7608282014107325,0.43337214116476513,0.41726396911360997,0.4464662299476089,0.41411758857967146,0.47414603328259647,0,0.9083114764171116,0.3078617011138765,0.07753752552400625,0.8084734127796537,0.3471293632944083,0.060247711604752556,0.3712206953628276,0.44075251424185063,0.827878372686838,0.3710664547679527,0.74120831123412,0.8641970530313882,0.7357645817164222,0.4847016784713748,0.8468287248002692,0.8586601320288254,0.4726133781386469,0.3721267115919734,0.8344592090343556,0.3073372977970987,0.41525966425459265,0.39669756060024514,0.8604172305800137,0.49404079041913507,0.32538551904406166,0.706771251411119,0.8236696669636926,0.12729737440681685,0.02239175878114576,0.2365454919748648,0.26875133881508795,0.42790277365796886,0.12249704609756429,0.5180753476588361,0.38733830576635575,0.809040606519068,0.34800557973565227,0.05769683211303844,0.9098670043062517,0.24890461492529992,0.8755337887066503,0.086674428232953,0.45497193544608966,0.05392440092760336,0.1873290475882682,0.41561668533857826,0.43293617833341624,0.7419384366479416,0.2939556298011547,0.2977871989055779,0.4188122747675204,0.2825987404128137,0.054919309876490116,0.8044498295225898,0.44812899886083196,0.48133372085955584,0.7459867806740156,0.3472650536220512,0.36304001230250565,0.8840773292005357,0.13441282395751994,0.8083729091211043,0.42798156421802064,0.758484775274319],[0.7850354627981937,0.49782539094742095,0.39786377451651384,0.8639991443672278,0.9574538032811353,0.7804711223202498,0.01035625368163296,0.3931783574905989,0.46443196094602185,0.8709731798522787,0.8652524569299229,0.465625513213234,0.4906848631986773,0.8069981103736462,0.3932297695252345,0.9076679981636312,0.054628451587732815,0.450860579139928,0.43520465507104245,0.43210976890929653,0.47385769985085124,0.487631433522972,0.4592782134639378,0.4942320696613066,0.4316686361720993,0.9083114764171116,0,0.8224541264253344,0.8430135419106026,0.41961242403288374,0.7192909595932708,0.8706270634258935,0.7369570945883346,0.464954740871975,0.415628851153776,0.7217727246372285,0.34821342092929103,0.040571008960105674,0.44200185274137055,0.4199216239822207,0.05998119946027406,0.05166655666550723,0.4325348636380841,0.7627008893227323,0.39475624323012876,0.8093334667242091,0.7209425030380733,0.5123142447977409,0.04940877643587478,0.41058628794090485,0.8392819549559076,0.4319419568896116,0.40506995612196545,0.9110649100661313,0.8828832361654962,0.8584609523505545,0.8322266018590129,0.47828455390846264,0.849268344038522,0.38742526820028056,0.7196507203817545,0.44005947206143303,0.8705570456915701,0.9388839282397683,0.0004353416377426362,0.888593829937025,0.02971046387422502,0.9984180912340563,0.45806825493291226,0.8690269249185028,0.8930951687264265,0.48918983875785327,0.47168783620940974,0.47925379080816494,0.7895906894573103,0.8261835185104663,0.7312713770460508,0.7863473231802024,0.9184981291158405,0.4363345079046495,0.4589953152933094,0.42714959793759355,0.4666244547539419,0.7366011503094381,0.7381041378156774,0.027004279285605334,0.9838362054547184,0.46507083501245994,0.4778045011723622,0.4536018719787491],[0.041858544812481024,0.5265130749384488,0.8603522894640285,0.03836451499252623,0.37429229005561543,0.6087900555549166,0.813047819765138,0.8344592090343554,0.38683789597313306,0.2977871989055779,0.07090244265806456,0.38793795349713933,0.5190228521992571,0.07119821301483181,0.5458644841905128,0.09077762129801145,0.7806857707261683,0.4149470210413881,0.8731323424404089,0.5400037809903385,0.3849829652877868,0.4047953061153098,0.40323545460479937,0.42341953563103424,0.45410730473376915,0.3078617011138765,0.8224541264253344,0,0.3306908986739997,0.5885323548464713,0.5453568026593228,0.3412244677074895,0.5795052196896563,0.42897702603783866,0.8926836135414434,0.5716262446426686,0.5536256025253201,0.7823575839837787,0.5139855869834395,0.4477675570331188,0.7707547622488722,0.7673814556693348,0.4283792370569528,0.5926982591318015,0.8914782061033154,0.009609985831169478,0.6157468090102736,0.3498140342219978,0.7856065731283316,0.4557942330721497,0.021394698361832155,0.49250790197637323,0.8851110397143335,0.4274533925193588,0.2923918908729828,0.07352359907828018,0.035777976810406335,0.38621039028523824,0.3908234021681285,0.48581454990764544,0.5871410299973506,0.8838455363609283,0.059039490465197776,0.3691969111650395,0.8226208290936929,0.08378681415251311,0.7939280617780593,0.3617673398513008,0.46490031184241754,0.3319496850360743,0.13282767994165798,0.3894417219226877,0.40878044447568684,0.5069611568878563,0.03468572685061634,0.006743739387361631,0.6239795994244454,0.04499833426356565,0.3641835019785195,0.8782835125809224,0.3969989808750827,0.4185344820411004,0.5148585897458317,0.5549969103054034,0.57183901108055,0.8062048647075767,0.4457403811401947,0.8919567666770064,0.3888357074755781,0.5306915251150172],[0.3021550131634048,0.7426496212233565,0.7198082063661114,0.3325368545021698,0.11078197663768782,0.30798720839067234,0.8302612860249428,0.694694380828893,0.3865111960167432,0.04755086005578441,0.39958779839304664,0.3841289102052687,0.731833372785938,0.2564069356226475,0.715470686666748,0.3925093939424391,0.788393694550578,0.3920584933114731,0.7186415261937087,0.7280437252896595,0.3742158044596322,0.3523065559400982,0.3855119751545953,0.34555539786267186,0.40765758427868853,0.07753752552400625,0.8430135419106026,0.3306908986739997,0,0.7744456685330506,0.26842658948265863,0.024035181097576366,0.2943666772779748,0.3744002433794838,0.7474460873752738,0.2930516132434382,0.6997792050716698,0.7987676642066973,0.7038380572407633,0.4206595789558899,0.780696609996529,0.7948570193480216,0.410450814878386,0.297589722787712,0.7543573753136036,0.3269680721992163,0.33788050691970484,0.3399056360103528,0.7939195342229954,0.4298250976397394,0.351890754946172,0.6733887456679447,0.7433942707483492,0.09973146902136225,0.06280302332315855,0.2696548519314733,0.2942011847069153,0.36778514580477223,0.057419195657613976,0.4519068260747667,0.3094676534893747,0.7282853636327817,0.3804680352861477,0.09220683854569468,0.8447769897590737,0.2897381689649381,0.8099293207048298,0.15785010771209335,0.38448389970652075,0.023162763144404377,0.23271394891707148,0.3533034550285992,0.3691969111650395,0.7139179267702283,0.30828167921174654,0.32157584211157575,0.34218939818672783,0.2956305201942467,0.07212346912660096,0.7237366126145268,0.38859737423299434,0.42222748029679313,0.71666138712646,0.2698973566003207,0.2861288359187895,0.8177809969061619,0.14985203341249667,0.7273764820787401,0.3673637766634096,0.7278484975898888],[0.5693399509131509,0.08446455047519921,0.7268436453036995,0.6281943664040571,0.8743474430215571,0.8722320439825604,0.4200059120795486,0.7101260702481295,0.42670338127079377,0.7777427871019782,0.5979781286728633,0.4306401940982906,0.08300577094762475,0.6118723156868431,0.06053959767769767,0.6458904165728743,0.4194517115104524,0.44377242804682276,0.7598489362159945,0.045137837723718995,0.44102407564165863,0.4859395896568267,0.4416659839976143,0.5129761899731059,0.46408311640810807,0.8084734127796537,0.41961242403288374,0.5885323548464713,0.7744456685330506,0,0.7943628462599134,0.7997291233217269,0.8256157469747867,0.48133021498481177,0.75533700470422,0.8102302178868994,0.1018794965803783,0.404695387589703,0.07119821301483192,0.4385855545363425,0.4104836609020266,0.3771739677657424,0.4320668464045749,0.8512357124468621,0.7398854184363076,0.5781858285397607,0.8328589996532272,0.4588188756318148,0.42088391935767855,0.4347394878223468,0.5943695745688614,0.09802385251776914,0.7441904747412925,0.8714221493150727,0.783311002673039,0.6530419475626176,0.6157468090102737,0.450171732225601,0.809891700732356,0.4397182971466554,0.8168717750479472,0.7685031244189126,0.6122975773003351,0.8599704156844713,0.4169245175149068,0.6738632365171712,0.4115333617699688,0.892275665052137,0.509101139409508,0.7938534425797067,0.7062756428844865,0.4710829384009123,0.4680107672904255,0.08446455047519923,0.5700724375635904,0.5965407099433195,0.8446647520107408,0.5738593271278016,0.8441334254316594,0.7631644663020597,0.4322307095932921,0.40621235031239794,0.07334721535819219,0.8124479920820762,0.8224356018301615,0.42610638629870745,0.9276172285266286,0.7901478125922967,0.45283149954719654,0.05604012515509641],[0.5046583217074896,0.7925091011607549,0.4902788297757164,0.5620741335304631,0.34935676856118203,0.07509328384600267,0.7053457429486464,0.46773310952110697,0.36468237402786546,0.31956212816980717,0.6198917892789226,0.3606582721234862,0.7802867813433656,0.47385769985085113,0.7302040213857739,0.6270819885722466,0.6610124005386925,0.3472069070495258,0.4804810468706137,0.7561497868977116,0.3505588321075694,0.304762552142125,0.34900981440672874,0.27802436776251593,0.33277952145322776,0.3471293632944083,0.7192909595932708,0.5453568026593228,0.26842658948265863,0.7943628462599134,0,0.2834586857340653,0.03211838564397793,0.3106004635847318,0.5129992275090327,0.022715746760325606,0.6978645959461608,0.6769581012773642,0.7370948335539361,0.3569807526321074,0.6560618047259756,0.682310775523903,0.36014920903988,0.05418942357363435,0.5244726264283968,0.5369301006743731,0.06804366892694245,0.3395838052140953,0.6663249639537515,0.36277098325678636,0.5700042697932837,0.7042609171959876,0.5113940154692123,0.259720052920205,0.3349155265122849,0.506231383604302,0.5174753492958948,0.34134276744787007,0.22454553829114562,0.3678263410360155,0.03888692991162589,0.48885852921181167,0.6052818773453448,0.33186861551197205,0.7221101701743662,0.5336173602354848,0.6864354095733689,0.4089041022431679,0.28955266880494207,0.28955266880494207,0.4863110472194083,0.32031873753760837,0.3226874668914126,0.7599268782851936,0.5121461534508412,0.5388766973203418,0.0751580092224315,0.49940967814412196,0.31325119035638627,0.4852062622118301,0.35855670983993004,0.3849829652877868,0.7579424454534411,0.014753094167311154,0.026104667772976715,0.6898836961336668,0.3314426787669046,0.4827899733222102,0.3384724077135281,0.7636144667200155],[0.3154965894398286,0.7665893553631432,0.7430960446429982,0.33982149399622175,0.08329948396683955,0.3171809259349637,0.857857215991548,0.7181328663904517,0.4141297980448124,0.042452013725134366,0.4079509792227924,0.41176672322136354,0.7558856721157364,0.26800759019193604,0.7411261273362678,0.3977282438140153,0.8159387240297673,0.41978110653811435,0.7411352593282848,0.7531024081848786,0.40187509683209194,0.3800029843299173,0.4132212532484882,0.3730621438701446,0.4352782613495564,0.060247711604752556,0.8706270634258935,0.3412244677074895,0.024035181097576366,0.7997291233217269,0.2834586857340653,0,0.3072880896481052,0.402038580592597,0.7703594410128661,0.30723340479298816,0.7260704574298698,0.8263781521645254,0.728740542277754,0.4483660380054231,0.8082682045814941,0.8225364529343872,0.43817397770501315,0.3083361803481931,0.777690560551205,0.3384724077135281,0.35134517515205005,0.3674370926195104,0.8214655676400339,0.45752660918189497,0.36137628891862467,0.6985041862299269,0.7665209185210424,0.08290764522915113,0.0542187956623636,0.27635347390314674,0.3036414211800708,0.3954725638882119,0.05933697236843657,0.4795318666764681,0.323478429667226,0.750671871404967,0.38812027282084377,0.06456970319991508,0.8724009204158542,0.29390420894618496,0.8375292230905389,0.1326407143846499,0.4117626302904704,0.005715015838796145,0.23466239119486323,0.38102535437703644,0.3969140967002431,0.7381614434213372,0.3212567889927038,0.331746974488471,0.35487660545495486,0.3088915491422493,0.04440092994803021,0.7462044971892895,0.4162731350320227,0.44989814984828247,0.7411352593282848,0.2833639216675348,0.29910977464936866,0.8453379559402903,0.1242102896538338,0.749198490509358,0.3950633953657597,0.7525539699777292],[0.5391931430585938,0.8254701544889694,0.4892622830387724,0.5954178103910578,0.36797277598943295,0.04332817336129188,0.7229530984262087,0.46775114421099384,0.3968589123401571,0.3455992148970836,0.6539759924078014,0.3928011322046595,0.813216441945322,0.5075402341071025,0.7614062689727861,0.6602649934262514,0.6786423316963132,0.3781593827149833,0.4768535727383306,0.7880565794440658,0.38286408509246667,0.3364587421197464,0.3805167223354552,0.3089513829221872,0.36158117733430883,0.3712206953628276,0.7369570945883346,0.5795052196896563,0.2943666772779748,0.8256157469747867,0.03211838564397793,0.3072880896481052,0,0.3409236064186553,0.5102306584129601,0.012175590798487205,0.7281180840471717,0.6952273980381047,0.7693746526774923,0.3862278346351117,0.6741216816428856,0.7017778059706717,0.3904309797208904,0.022908245204166747,0.5229798830220023,0.5712714589458299,0.04072442114454877,0.3733102983967625,0.6838780340323388,0.39159847496974115,0.6040604223874247,0.7365483181882438,0.5093994944605492,0.2749473059751151,0.3606956065375267,0.5388265503660443,0.5510414320750393,0.3736439215271119,0.24638102450141,0.3949183807954672,0.01733812072534922,0.484715605014821,0.6390668084424109,0.3512397912854157,0.7399014260136488,0.5656962339185572,0.704393009143973,0.4280327703710231,0.3176151844042759,0.31398536230945745,0.5171195894580387,0.352626439775858,0.35404098795955696,0.7928016351338393,0.5466560265842467,0.5728662753209756,0.0441527716942466,0.5338704779665321,0.3335619411882142,0.4814038330335035,0.3903187872339746,0.4157910283077176,0.7905782438030382,0.021394698361832155,0.004558956817313061,0.707194758575586,0.34364645464990945,0.47689249518604343,0.3706760331349325,0.7959295153880914],[0.3840938318809089,0.48656431002897893,0.42870969628589195,0.46453728995233307,0.48882055242792516,0.38772948456853756,0.45226498664601106,0.4030139221566572,0.06310920129027783,0.40323545460479937,0.4935075530742066,0.05925598037193137,0.4742029674589416,0.3861624142982775,0.4171023596469935,0.5233768557460173,0.41072992309866085,0.035082481802733566,0.44382942674795395,0.44501335815429605,0.05359881937439933,0.02193129325697831,0.04152129511716156,0.030165577418660834,0.02971046387422502,0.44075251424185063,0.464954740871975,0.42897702603783866,0.3744002433794838,0.48133021498481177,0.3106004635847318,0.402038580592597,0.3409236064186553,0,0.46133047740394667,0.3254268547800099,0.3836199635506309,0.42071968176282054,0.427559867214305,0.04596662864951305,0.40284246518323535,0.4169730273710259,0.04586378787182195,0.36679508606857386,0.4592231169898938,0.4161637980259173,0.3483245414259386,0.07728592203136211,0.4162447911343463,0.05407178585625305,0.45201878149194036,0.3948927845121053,0.45336754826022596,0.4468287158082805,0.41568156560802855,0.4369639534830196,0.4228179441754953,0.046949989502009834,0.3838613577872565,0.07385323714729491,0.33185341279561464,0.454582496924397,0.4893829998539844,0.4702871658156925,0.4666967593892884,0.46952239635330373,0.43191853611932757,0.5304910187051204,0.03754787825387646,0.4003839341592973,0.4558867419833961,0.03620650457716402,0.019122438541862602,0.45360187197874907,0.3908190919547468,0.4283792370569528,0.3601118185526573,0.3825164125661726,0.4499693721029902,0.4488923471752287,0.05273146274191582,0.07156064216915205,0.45016798563587773,0.3288960540811669,0.338049726043517,0.44001348625051095,0.5176580305914332,0.4649402270822127,0.04332817336129188,0.4541518749530876],[0.8474043221918229,0.808268204581494,0.029300647894735656,0.926641715974498,0.8499897077308017,0.5378257761952697,0.40463292609486196,0.05462845158773287,0.5134893545186178,0.7927674761237109,0.9584351895740645,0.5112256237176371,0.7974336918276765,0.8441354310635106,0.7044602464891077,0.9871401737302248,0.3747913160599798,0.4817822638011864,0.03139882145905397,0.7450675922378293,0.5112190189973934,0.4846842697335996,0.49348361235015714,0.4657667969549549,0.44005947206143303,0.827878372686838,0.415628851153776,0.8926836135414434,0.7474460873752738,0.75533700470422,0.5129992275090327,0.7703594410128661,0.5102306584129601,0.46133047740394667,0,0.5001527072101972,0.6546917986855516,0.3960982916164283,0.7420820958719068,0.45271229211020936,0.3788312154959532,0.42027070843370556,0.4725883871403218,0.5283859332956755,0.01851807380136049,0.8800824073918755,0.47407129687968824,0.5420671714017204,0.3769819389982958,0.44671924562345033,0.9161885170496976,0.7175106838753738,0.0075291725090323985,0.7702210308732731,0.8080692287490927,0.8928524309169716,0.8834354404172325,0.5078960078419388,0.7228945933390563,0.41857072623900543,0.48920708836194,0.02782434941330449,0.9537881772550867,0.8310785231828473,0.41974898171785274,0.9253797054009724,0.39727048947460947,0.9058806626502129,0.42415543172443154,0.7734026033342027,0.9015931891989345,0.5012180538704862,0.48272355680745666,0.7794773367871198,0.854350735159527,0.8914383145066179,0.4796022402500181,0.8453539780994324,0.8105539760106256,0.02814646295922324,0.5020660257471745,0.49114554800662324,0.7697990567343289,0.5237477388432237,0.5156679211951178,0.38888335676082286,0.8446166455726856,0.05054941604584525,0.5047887600381925,0.7636942422016624],[0.5308092477886589,0.8105873888742345,0.4785772924652258,0.5884634405638696,0.37074415924147025,0.059120761625181435,0.7077757730388116,0.45671479242460694,0.38177601582823373,0.3442627564928416,0.6461730696826744,0.37770935060573585,0.7983225465457809,0.5002168265051247,0.7460139986960825,0.6534793803673827,0.6634560814627332,0.36277098325678636,0.4670581159808013,0.7728334662776061,0.3678263410360155,0.321262021897337,0.36525432118561074,0.29358405710686764,0.34587173081226524,0.3710664547679527,0.7217727246372285,0.5716262446426686,0.2930516132434382,0.8102302178868994,0.022715746760325606,0.30723340479298816,0.012175590798487205,0.3254268547800099,0.5001527072101972,0,0.7125517523145333,0.6799519073360534,0.7542609131522202,0.3705624620657666,0.6588728816462682,0.6863467021956419,0.3749126013076082,0.038766943190788994,0.5124723984135326,0.5631460949377876,0.041858544812481024,0.3588616990318706,0.668703820093221,0.37588596795781987,0.5962941924504854,0.721439812066443,0.49905466350002214,0.27921096264545436,0.35952709225954665,0.5326290596432284,0.5438464618050695,0.3586083414437089,0.24734473855991654,0.3790845146736171,0.01280618717645391,0.47510944213240536,0.6316215279675479,0.35361768741610344,0.7246990624660674,0.5599814144470653,0.6891625257166946,0.4305932108867111,0.301849072455381,0.3135890132644721,0.5124888699617937,0.3376016101668866,0.33875059525258944,0.7778885677525534,0.5383060019338793,0.5651823380931672,0.0487643708885335,0.5255886179681933,0.3354424116758599,0.47167352799517115,0.3751191459955023,0.40036289256750546,0.77557898997697,0.021394698361832155,0.013011095166198616,0.6920598304884097,0.34934713555003133,0.4679278476756106,0.3556109091967391,0.7808245020767989],[0.5275383625259165,0.15333431437569528,0.6254894658242869,0.595068602353997,0.8046496962860097,0.774985239167549,0.34582794794176086,0.6079482598363701,0.3335669831642602,0.7083610895519175,0.5757875088349844,0.3373125123472627,0.14399242823244918,0.5648115668879419,0.04640983258225142,0.6227158828250515,0.33711798109592633,0.34720690704952584,0.6577581109956001,0.08759183958857965,0.3479668980534767,0.39067251666991915,0.34640641235231084,0.4162326431639661,0.3639615637814882,0.74120831123412,0.34821342092929103,0.5536256025253201,0.6997792050716698,0.1018794965803783,0.6978645959461608,0.7260704574298698,0.7281180840471717,0.3836199635506309,0.6546917986855516,0.7125517523145333,0,0.32544235434258717,0.0912444770717899,0.3387654917791125,0.32735867607633207,0.2993904291244763,0.3340708006795364,0.7540724400175798,0.6400105655514372,0.5419830405236312,0.7332399482263967,0.37019880281738343,0.33945994376764155,0.33419663767739033,0.5635898995560803,0.08108186169603186,0.6436142408654884,0.7930214987005151,0.7154612287777945,0.6104092711724991,0.5756642504564418,0.3569005950522368,0.7303268115190198,0.33699821434681393,0.7184154994054653,0.666649735222651,0.586979838731486,0.7891296957579181,0.3462120772355358,0.634766684869672,0.3339499530388674,0.8279867421119866,0.4088093012704624,0.7209542359543649,0.6592833840974398,0.37740605934201005,0.37219005094248847,0.12952428353477832,0.5295862126127011,0.5603704340170087,0.7450448819516,0.531140005173067,0.7720535090244968,0.6612246951080356,0.3377560275897518,0.3093698991785706,0.11763294216397263,0.7161253432002733,0.7253430997304844,0.3488169145410914,0.8532799210961598,0.6878138368216857,0.35923203314704655,0.10772567338091636],[0.7443518870137705,0.4789156601733546,0.3757067332688041,0.8237457073977033,0.9132112620986849,0.7390983353130515,0.028146462959223136,0.36855793975482537,0.42091195357363737,0.8268409920605734,0.8266341795681976,0.42203580262404833,0.4709754795262605,0.7653543493284432,0.3725382267611604,0.8684948426592992,0.017817872055600745,0.4068962611243071,0.41287850733780374,0.4125681607144505,0.4301544555539975,0.4434492981625318,0.4154179270334406,0.44997312033297526,0.38742526820028056,0.8641970530313882,0.040571008960105674,0.7823575839837787,0.7987676642066973,0.404695387589703,0.6769581012773642,0.8263781521645254,0.6952273980381047,0.42071968176282054,0.3960982916164283,0.6799519073360534,0.32544235434258717,0,0.4202265871943847,0.3758142842402714,0.017817872055600745,0.02421857971024293,0.3885973742329944,0.7211020544262124,0.3760875058719936,0.769189865170008,0.6801458894423488,0.4687131966145277,0.015565079590865828,0.36646907148551583,0.7996190586048787,0.40745911414957453,0.3852191412454947,0.8669025042611317,0.8387936566795294,0.816942229130519,0.7912886944250739,0.4344640313297582,0.8050618968999705,0.34318596073858604,0.6781786478766395,0.41857072623900543,0.8314023434227739,0.8946354017534172,0.04256244137553646,0.8472984255139578,0.007975071484084332,0.9542782111481592,0.41388554091327984,0.824791068742714,0.8507761362959942,0.4451611300040917,0.42757563900748435,0.45817503519952335,0.7490448945424789,0.785862899588338,0.6906114648472967,0.745517114148725,0.8742447962409408,0.41445931884535264,0.41530025015323935,0.38365508478913274,0.44586143732789063,0.6943826572029459,0.6962096158060984,0.02112204926543224,0.9396196817234606,0.4433237847915987,0.4339359122224252,0.4339009406784919],[0.4944676520127979,0.06280302332315855,0.7120744006123387,0.5538391385977697,0.8021172012898625,0.8155423744603868,0.4400747996061028,0.6933954258636242,0.3688319188497895,0.7055855244964175,0.5250228763035859,0.372886080661073,0.05166655666550723,0.5370213073910732,0.045932372072692344,0.5728633260344468,0.43204733477743107,0.3891301741194063,0.7431893953868922,0.02239175878114576,0.3828772816839653,0.4293659316830105,0.38563865586047136,0.4577145991277938,0.41385703494047293,0.7357645817164222,0.44200185274137055,0.5139855869834395,0.7038380572407633,0.07119821301483192,0.7370948335539361,0.728740542277754,0.7693746526774923,0.427559867214305,0.7420820958719068,0.7542609131522202,0.0912444770717899,0.4202265871943847,0,0.38825044898469785,0.42229135368792386,0.39399587669442077,0.37931100878145213,0.7945162430626332,0.7282853636327817,0.5035398607311125,0.779375283075201,0.396897117706837,0.4343708801052192,0.3855949775151943,0.5202056345063312,0.02914564818948908,0.7311140337783301,0.801965251714394,0.7107737240460096,0.5781741391568578,0.5409349913023207,0.39209716206528167,0.7410439343691249,0.3946495377878175,0.7618506392977571,0.7524167982684814,0.5388672951194637,0.7880565794440658,0.4398639994385444,0.5991216466884667,0.42859957127814663,0.8188711499631711,0.4586166224014111,0.7226417972100461,0.631402015297984,0.4131233546047597,0.4122289649853519,0.034818432723559445,0.4952282661529787,0.521913352974393,0.7911410928055597,0.49897686491077975,0.7725881709572043,0.7468776577409966,0.3755453496212104,0.35247369527700867,0.024035181097576366,0.7549224418695554,0.765732352322002,0.44346070672197735,0.8566227779195933,0.7727721497124197,0.39502501428881087,0.022908245204166747],[0.403995272222507,0.4493016930749708,0.41974898171785274,0.48537318213671665,0.5348501854900931,0.4332009219352247,0.407537686696131,0.39475624323012876,0.057945635632648734,0.44737189840309366,0.5082847484908138,0.056352469754928025,0.4369369405562181,0.4116521059103366,0.3744721951412887,0.5414093584057296,0.3669098116649852,0.030165577418660834,0.43861246677625915,0.40430380441899283,0.05939090925970325,0.06476870646981898,0.04133284257253224,0.07964549007008759,0.02193129325697831,0.4847016784713748,0.4199216239822207,0.4477675570331188,0.4206595789558899,0.4385855545363425,0.3569807526321074,0.4483660380054231,0.3862278346351117,0.04596662864951305,0.45271229211020936,0.3705624620657666,0.3387654917791125,0.3758142842402714,0.38825044898469785,0,0.3586318079222383,0.37071236860106466,0.016259115517668114,0.4123883805507066,0.44827575203780057,0.4346502743922038,0.39089235917898263,0.09720134637271703,0.3723890480238973,0.005715015838796145,0.4696804781534145,0.3559373105122837,0.4439509997200362,0.49544293819324203,0.4592929047496649,0.4632863394742982,0.44563064579812983,0.05990102800391861,0.43228141666971054,0.03468572685061634,0.37604720684617465,0.4493016930749708,0.5062180446993831,0.516518488739669,0.4214882473155698,0.4955246937361018,0.3871686733693095,0.574824221310472,0.06689664857126094,0.44631510799505336,0.4870392586353861,0.06612149895426353,0.04807911251069894,0.416329817089219,0.4102742228501071,0.448249415233001,0.4027002264846014,0.4031644101674516,0.4964129222682028,0.4435063380492767,0.04718450471045314,0.038766943190788994,0.4119754092564472,0.37537043980031615,0.3837779840537752,0.3959153570004305,0.5656603957731599,0.4620466333047775,0.05816595415172858,0.4147398170649744],[0.7321685155680053,0.48238434159098015,0.35761666677767945,0.8119644767672786,0.8951633605312717,0.7178996108150132,0.04640983258225142,0.34971781693448784,0.4051781009242734,0.8094108478702663,0.8164053822347187,0.40616256682686713,0.47403214457385556,0.7520973840862037,0.37540183981330905,0.8577368127361863,0.006743739387361631,0.39015475610939393,0.39466661257934366,0.41590451501895936,0.41403618302552786,0.425900606580889,0.3989463777860068,0.4316256701711347,0.3694840913526728,0.8468287248002692,0.05998119946027406,0.7707547622488722,0.780696609996529,0.4104836609020266,0.6560618047259756,0.8082682045814941,0.6741216816428856,0.40284246518323535,0.3788312154959532,0.6588728816462682,0.32735867607633207,0.017817872055600745,0.42229135368792386,0.3586318079222383,0,0.037753546122221066,0.37194568316859233,0.6999604715711507,0.35916174561305525,0.7575471718764536,0.658826684203616,0.4527793501241192,0.011179632428395023,0.3492556088311204,0.7884323355227741,0.40798815519861326,0.3678675316998506,0.8478098046238839,0.8215170843103415,0.8038078176520894,0.7788104901568463,0.4180751192781748,0.7861535893960954,0.32531316900948287,0.6570018751143052,0.4006153193931129,0.8206800551883663,0.876523442492754,0.06252111638180417,0.8344044300758495,0.026726009236426068,0.9368015916644934,0.3949183807954673,0.8068135087561026,0.8366575567061519,0.4282021013169838,0.4103399403107069,0.46051066061774654,0.737003010422862,0.774032545883595,0.6692700578868036,0.7331776446189132,0.8560671969879456,0.39638741283546947,0.3992123536566995,0.3680093757137426,0.44841117422781623,0.6734414832928702,0.6751544782089703,0.03360708455811839,0.9207559874137318,0.4252469980950089,0.41742955445203184,0.4370758465433068],[0.7301808511321862,0.4520635559582938,0.39894215453019094,0.8089715598145732,0.9091612908230645,0.7462498468410401,0.04457740468233225,0.39075012213507704,0.4128458501611172,0.8214655676400339,0.8099167809072825,0.41421932322309735,0.4442851552731359,0.7526798762024379,0.3459981838671049,0.8523885391730682,0.04300154028865713,0.4007835164229307,0.4359517667062603,0.38580458890131974,0.42276611185706664,0.43890455147750695,0.4087474628093926,0.4472474768492868,0.383935940137628,0.8586601320288254,0.05166655666550723,0.7673814556693348,0.7948570193480216,0.3771739677657424,0.682310775523903,0.8225364529343872,0.7017778059706717,0.4169730273710259,0.42027070843370556,0.6863467021956419,0.2993904291244763,0.02421857971024293,0.39399587669442077,0.37071236860106466,0.037753546122221066,0,0.38237108955871213,0.7278670929488134,0.4005984958414688,0.7542766171313338,0.6883251247725394,0.4608768290195554,0.042452013725134366,0.36146943426815176,0.7840949236887015,0.3820185640994144,0.40930367562619324,0.8655439844288628,0.8330805307864253,0.8040457372946769,0.7774816194310921,0.42757563900748435,0.8032453748448836,0.33972247699671926,0.685222086740992,0.4419675141491488,0.815276650646693,0.8907484785850184,0.05157432417121298,0.8340330560532397,0.030959910706879444,0.9489150298191216,0.4128458501611172,0.820640863056683,0.8393384340217936,0.43936918373725437,0.4224070998046373,0.431793604071254,0.7346783890768848,0.7711827993267713,0.6989931765670637,0.7315582104385829,0.8705278699805039,0.4377119396721511,0.40790140603172137,0.3755588008815023,0.41939544770495596,0.6999604715711507,0.7024427492162517,0.04579510861301731,0.9375895563167177,0.46656660304121533,0.4272758762370989,0.4071860611848561],[0.38475977836656533,0.43920028295031366,0.43963008565372197,0.46619039329188794,0.5242794203860935,0.4372571301700436,0.42039903502975096,0.4146056892100504,0.03812119884106742,0.4354641590999384,0.4885442694942026,0.03675680337429965,0.42682979045328673,0.39322548544336594,0.36784464856150734,0.5219036473199823,0.38046803528614775,0.014753094167311154,0.4583222778297854,0.3962853939163555,0.04091544436884064,0.05761367320515229,0.023726790474036124,0.07896938444303155,0.035082481802733566,0.4726133781386469,0.4325348636380841,0.4283792370569528,0.410450814878386,0.4320668464045749,0.36014920903988,0.43817397770501315,0.3904309797208904,0.04586378787182195,0.4725883871403218,0.3749126013076082,0.3340708006795364,0.3885973742329944,0.37931100878145213,0.016259115517668114,0.37194568316859233,0.38237108955871213,0,0.416329817089219,0.4682089942460974,0.4152393698307768,0.3972408021768867,0.07964549007008759,0.3859137168341232,0.023726790474036124,0.4501717322256009,0.3467559439910969,0.4638504087810207,0.48797740412260326,0.447021167844757,0.44495650986740387,0.42673893760567305,0.0429651065618207,0.42457253995982164,0.0537470397849194,0.3811844401726786,0.46901905709989394,0.486623270259823,0.5061480097229871,0.43396311038016355,0.4771082806651379,0.4000471370949831,0.5628940511856366,0.07682260683634717,0.4357738139350875,0.4697379493571465,0.05350970276418263,0.03888692991162589,0.4062123503123979,0.39098284697167224,0.42897702603783866,0.4090400829956068,0.3840192799037857,0.48626246130858053,0.4632280741637149,0.027716244041676826,0.023726790474036124,0.4023779134777683,0.3784398274084942,0.38759044357729905,0.4092377932434067,0.5571840290011816,0.4816035971568201,0.041933150625552994,0.4058803461077939],[0.5532685094554683,0.8502028118055392,0.5083744159609725,0.6070663273795579,0.3639615637814881,0.01733812072534922,0.7486878887243109,0.48742373417581125,0.42201583123652575,0.3485852952718743,0.6669616719343472,0.4179743149247017,0.8379697685715534,0.5199231795152812,0.787042221346773,0.6715604798442849,0.704393009143973,0.40383674599764374,0.4946144078714562,0.8133891915377188,0.4079509792227924,0.3618278222544254,0.4059799756208484,0.33461408084740096,0.3878250466065432,0.3721267115919734,0.7627008893227323,0.5926982591318015,0.297589722787712,0.8512357124468621,0.05418942357363435,0.3083361803481931,0.022908245204166747,0.36679508606857386,0.5283859332956755,0.038766943190788994,0.7540724400175798,0.7211020544262124,0.7945162430626332,0.4123883805507066,0.6999604715711507,0.7278670929488134,0.416329817089219,0,0.5417835673504544,0.5848803350532948,0.05114185448990003,0.3974358499117924,0.7096113380292445,0.4178452501766768,0.6170384113515974,0.7616840306601049,0.5279671143603825,0.26887613937699634,0.36333664308622987,0.549306818164164,0.5631460949377876,0.3987309352292809,0.24616333627904757,0.4214082532374488,0.03971755093058082,0.5021736030045911,0.6514761910716554,0.34796689805347664,0.7656704698104866,0.5753383698654109,0.7302040213857739,0.42417132901218885,0.34396941568192174,0.3155658379151849,0.5250518209608759,0.3777048921874186,0.37955955401133434,0.817590537198354,0.560665789024456,0.5857464210194524,0.048504380963372624,0.5477857115912689,0.33121427553180227,0.4990580457742814,0.4156734561232869,0.4415285101187093,0.8155174665143381,0.037753546122221066,0.025118063692887785,0.7328706647446502,0.3347196173743296,0.4933673124309871,0.3958132175345354,0.821053318431812],[0.8463387604774089,0.7943117074396864,0.03095991070687954,0.9260292146498548,0.8581867585173953,0.5518225369770896,0.3839315533377921,0.05615389363666001,0.5094525171974569,0.7990091961420289,0.9563704629407368,0.5073372989755682,0.7836091141980538,0.844398127827177,0.6899057609505499,0.9859398507872511,0.3548623782895249,0.4781222366596984,0.050549416045845265,0.7306695884576874,0.5077896341581921,0.4830415747137073,0.48988279784556027,0.46524854846479663,0.43672463847972937,0.8344592090343556,0.39475624323012876,0.8914782061033154,0.7543573753136036,0.7398854184363076,0.5244726264283968,0.777690560551205,0.5229798830220023,0.4592231169898938,0.01851807380136049,0.5124723984135326,0.6400105655514372,0.3760875058719936,0.7282853636327817,0.44827575203780057,0.35916174561305525,0.4005984958414688,0.4682089942460974,0.5417835673504544,0,0.8787750094485539,0.4877594710314327,0.5396095676716716,0.3569194572622509,0.4419408045258584,0.914762194310174,0.7042489076149318,0.011518867847299141,0.7798355052121014,0.8142191290853417,0.8935596009230881,0.883188141441155,0.5048389197180653,0.7313847358751407,0.41330689570783125,0.5019819650905875,0.04915195727613856,0.9522258518338932,0.8391931944918521,0.3988788003763076,0.9261389460399834,0.3769819389982958,0.9135376017873842,0.4229813740887014,0.7804928066450617,0.9037413320332918,0.4990343693765974,0.480224600307657,0.7658826177046619,0.8532025327131629,0.890489890616056,0.49365801123701186,0.8444542661996146,0.8185610068667359,0.048373899122976356,0.4981406154526277,0.48584233927870346,0.7560087878882145,0.5357493144875748,0.5281973457377293,0.3683203279868813,0.8545389809158933,0.0726598796561387,0.5018205294457478,0.7495349368729282],[0.03021576847803782,0.5171816201270755,0.8477199360148793,0.05114185448990003,0.37447219514128866,0.6012138874457346,0.7999005402540259,0.8218425953030877,0.37367546520177913,0.2957043636575639,0.08041730352688024,0.37479580879926955,0.5095154745823506,0.06689664857126094,0.5348501854900932,0.10352572112700326,0.7674718666128608,0.40187509683209194,0.860678913497818,0.5295830239634354,0.371900412429445,0.3920584933114731,0.3901547561093938,0.41092682754276466,0.441131124695626,0.3073372977970987,0.8093334667242091,0.009609985831169478,0.3269680721992163,0.5781858285397607,0.5369301006743731,0.3384724077135281,0.5712714589458299,0.4161637980259173,0.8800824073918755,0.5631460949377876,0.5419830405236312,0.769189865170008,0.5035398607311125,0.4346502743922038,0.7575471718764536,0.7542766171313338,0.4152393698307768,0.5848803350532948,0.8787750094485539,0,0.6070663273795579,0.33685843323693726,0.772397575553917,0.4426537840550733,0.03268378891284319,0.48167016692702824,0.8724707907980298,0.42492180372995103,0.2909641578638909,0.07822545038809654,0.038766943190788994,0.3731884975016139,0.3866811141162644,0.47267406510476956,0.5785597648818959,0.8713968887522172,0.07065125630928626,0.3687223513994747,0.8095112232495508,0.09252548664877885,0.7807638101298305,0.3640494303342196,0.4522612572568004,0.3292639685160802,0.13748157068434969,0.37658417604805167,0.39588131341282884,0.49715700207206565,0.022715746760325606,0.014753094167311154,0.6154365333652747,0.034329579930989534,0.36297972985188975,0.8658256362484192,0.38386574538164947,0.4052945325773164,0.5048723567561564,0.5468660887426677,0.5636618351596832,0.7930214987005151,0.4454073083686014,0.8796378397021594,0.3758322064389959,0.5205787610306352],[0.5745155127265598,0.8372967322644557,0.4545379685903195,0.6332120671313697,0.4123393361136859,0.060882852876872895,0.7069004837429875,0.43396311038016344,0.40809553360903517,0.3891171875985339,0.6903273093072502,0.4039827592354483,0.824971665486271,0.5447680474346547,0.7686616572508866,0.6983080102699105,0.6627573432467264,0.38658091495589053,0.4401667537587669,0.7970260588108338,0.3945470736645396,0.347051802395445,0.39021951339732447,0.3180858504743508,0.3655998270469302,0.41525966425459265,0.7209425030380733,0.6157468090102736,0.33788050691970484,0.8328589996532272,0.06804366892694245,0.35134517515205005,0.04072442114454877,0.3483245414259386,0.47407129687968824,0.041858544812481024,0.7332399482263967,0.6801458894423488,0.779375283075201,0.39089235917898263,0.658826684203616,0.6883251247725394,0.3972408021768867,0.05114185448990003,0.4877594710314327,0.6070663273795579,0,0.38916047433194434,0.6678738247945344,0.395366049987068,0.6404938041727553,0.746642006933211,0.47383277397393614,0.31899350691735934,0.40430380441899283,0.5777619382656223,0.5884634405638696,0.3853939939720644,0.2906812461986504,0.395344743795028,0.025470089022952513,0.4476281740470131,0.6760456308631367,0.3956429270361436,0.7240451089110621,0.6052818773453448,0.6888630440518457,0.47241698495665513,0.3207540371765899,0.35792244882024776,0.5580110848317086,0.36458542405533784,0.36362840505160665,0.8044329963806489,0.5820392933029715,0.6094560041908285,0.008119963313152116,0.5693903949752726,0.37797230510203295,0.44457354369995217,0.40056064029037325,0.42356681624920783,0.801524013440892,0.06434512873240646,0.04873194266631155,0.6907975726781469,0.38692932299608357,0.43861246677625915,0.38219927362810985,0.805971779873034],[0.3053628605314262,0.4500031050580612,0.509382923731525,0.38638479867839726,0.45196280722184407,0.4183653012967085,0.5005474175942255,0.4837537400665016,0.044400929948030236,0.36017257614324577,0.4131233546047597,0.04300154028865713,0.4378660060688894,0.3110167867888016,0.3955875669863166,0.4440117738261472,0.46157540980339884,0.06336328160974308,0.5247944795356412,0.41750626704771115,0.03538828404704753,0.056380784183899565,0.05239895671247315,0.08368956555358271,0.1006318557500664,0.39669756060024514,0.5123142447977409,0.3498140342219978,0.3399056360103528,0.4588188756318148,0.3395838052140953,0.3674370926195104,0.3733102983967625,0.07728592203136211,0.5420671714017204,0.3588616990318706,0.37019880281738343,0.4687131966145277,0.396897117706837,0.09720134637271703,0.4527793501241192,0.4608768290195554,0.07964549007008759,0.3974358499117924,0.5396095676716716,0.33685843323693726,0.38916047433194434,0,0.4669714157011271,0.10611145015441469,0.37244330168312956,0.3641881242671682,0.5339969921484456,0.42502890716186853,0.3707850289563443,0.3625481890786498,0.34576956224813843,0.03365265007065209,0.3615253100749325,0.13549213847203997,0.36830661498495876,0.535547535350228,0.40956298540928654,0.4344640313297581,0.51354195799255,0.3948543870047243,0.48026325163605166,0.48702193282705275,0.1169019154371345,0.36407717330521705,0.3864196710001459,0.03754787825387646,0.05569751201111984,0.41766772159723065,0.31189089425500044,0.34969857033331475,0.40061531939311285,0.3041555495533095,0.41530025015323924,0.5298539911190734,0.05001379983063654,0.08164167055917598,0.4163743476256339,0.3569005950522367,0.36890038214421844,0.49000680721750933,0.4906023071496618,0.5458768608079959,0.035777976810406335,0.4231686435971149],[0.7469909250669691,0.49389386537894703,0.356792118191289,0.8268082331186075,0.9083897819025629,0.7273741561248396,0.03538828404704753,0.3499342690160476,0.41943965561052027,0.8229726465528756,0.8312679427198094,0.4203829963288935,0.4857172746827206,0.7668189055267176,0.3871382187353548,0.8726046934586804,0.0018441367709138943,0.40408285238055414,0.39399587669442077,0.4274533925193588,0.4281784777288689,0.43946512141453675,0.4129723824629181,0.4447442125876292,0.3828640850924667,0.8604172305800137,0.04940877643587478,0.7856065731283316,0.7939195342229954,0.42088391935767855,0.6663249639537515,0.8214655676400339,0.6838780340323388,0.4162447911343463,0.3769819389982958,0.668703820093221,0.33945994376764155,0.015565079590865828,0.4343708801052192,0.3723890480238973,0.011179632428395023,0.042452013725134366