"trial_id","rt","stimulus","response","trial_type","trial_index","plugin_version","time_elapsed","participant_number","success","raw_payload","placements","dissimilarity_vector","n_words","trial_category","distance_matrix","value"
"consent_form","2200","
    <div style=""max-width:800px; margin:0 auto; text-align:left; font-size: 16px; padding: 10px 0;"">
      <h1>Informed Consent Form</h1>
      <p>You are being invited to participate in a research study titled <strong>""Reproducibility of Psychological Science and Instruction.""</strong> This study is being done by Dr. Bria Long from UC San Diego and associated graduate students in the Experimental Methods course. You were selected to participate in this study because you are an adult in the U.S. and have been a represented population in previous psychology studies.</p>
      
      <p>The purpose of this study is to better understand how well previously published studies in the psychological field replicate online and with different populations. Your participation in this research should last approximately <strong>5-30 minutes</strong>. If you agree to take part in this study, you may be asked to view a set of stimuli, including pictures, sounds, written text, or videos and then giving some responses via key-presses, verbally, or with paper-and-pencil. We may also observe your choices or preferences among an array of stimuli. These stimuli will be taken directly from or closely adapted from studies that already exist in the published psychological literature. Stimuli will include, e.g., pictures of objects and human faces, audio and video clips, short text passages, etc. None of the stimuli will be disturbing, threatening, or offensive. The online and in-person experiments described in this protocol will take no more than 30 minutes. An example game you might play would be to click on an image on the screen that matches a word you hear being said out loud. Your total expected time commitment for this study is between 5-30 minutes, and is specified in the study description.</p>
      
      <p>Your participation in this study is completely voluntary and you can withdraw at any time. Choosing not to participate or withdrawing will result in no penalty or loss of benefits to which you are entitled. You are free to skip any question that you choose.</p>
      
      <p>We will not be asking for any personally identifying information, and we will handle responses as confidentially as possible. Your SONA or Prolific IDs will never be tied to your responses on this survey. However, we cannot guarantee the confidentiality of information transmitted over the Internet. To minimize this risk, data containing anything that might be personally identifying (e.g. Prolific IDs or IP addresses) will be encrypted on transfer and storage and will only be accessible to qualified lab personnel. We will be keeping data collected as part of this experiment indefinitely. This anonymized data (containing neither Prolific IDs nor IP addresses) may be shared with the scientific community or with other participants to be used as stimuli in future studies.</p>
      
      <p>If you have questions about this project or if you have a research-related problem, you may contact the researcher(s), <strong>Dr. Bria Long, <a href=""mailto:brlong@ucsd.edu"">brlong@ucsd.edu</a></strong>. If you have any questions concerning your rights as a research subject, you may contact the UC San Diego Office of IRB Administration at <a href=""mailto:irb@ucsd.edu"">irb@ucsd.edu</a> or 858-246-4777.</p>
      
      <h3 style=""margin-top: 25px;"">Consent Statement</h3>
      <p style=""font-weight: bold;"">By participating in this research you are indicating that you are at least 18 years old, have read this consent form, and agree to participate in this research study. Please keep this consent form for your records.</p>
    </div>
  ","0","html-button-response","0","2.1.0","2203","sccx7hegb0_f62p2y","","","","","","","",""
"","18469","","{""participant_date"":""11/25/2025"",""participant_time"":""4:00 PM""}","survey-html-form","1","2.1.0","20673","sccx7hegb0_f62p2y","","","","","","","",""
"","4681","
    <div style=""display:flex; align-items:center; justify-content:center; height:100vh; font-family:sans-serif;"">
      <div style=""max-width:900px; margin:0 auto; text-align:center;"">
        <h1 style= ""font-size: 24px;"">Welcome! Thank you for participating in the study.</h1>
        <h2 style= ""font-size: 22px;"">The study will be in Madarin Chinese.</h2>
        <h2 style= ""font-size: 22px;"">Please use desktop computers or laptops for the study. Tablets and phones are not allowed.</h2>
        <p style=""font-size:16px; margin-top:30px;""><em>Press any key to continue.</em></p>
      </div>
    </div>
  "," ","html-keyboard-response","2","2.1.0","25355","sccx7hegb0_f62p2y","","","","","","","",""
"","550","
    <div style=""display:flex; align-items:center; justify-content:center; height:100vh; font-family:sans-serif;"">
      <div style=""max-width:900px; margin:0 auto; text-align:center;"">
        <p style=""font-size:18px; line-height:1.6;"">
          In this task, you will be presented with <strong>90 words</strong> arranged <strong>outside a circle</strong>.<br>
          Your job is to <strong>drag these words into the circle</strong> and <strong>rearrange them</strong> based on their <strong>meaning similarity</strong>.<br><br>
          Words that are <strong>similar in meaning</strong> should be placed <strong>closer together</strong>.<br>
          Words that are <strong>different in meaning</strong> should be placed <strong>farther apart</strong>.<br><br>
          You can place the words <strong>anywhere inside the circle</strong>. There is no single correct answer — 
          we are interested in <strong>your personal judgment</strong> of how these words relate to each other.<br><br>
          <strong>You must move all words into the circle before you can finish.</strong><br>
          After the initial arrangement, you will arrange words from specific categories.
        </p>
        <p style=""font-size:16px; margin-top:30px;""><em>Press any key to continue.</em></p>
      </div>
    </div>
  "," ","html-keyboard-response","3","2.1.0","25906","sccx7hegb0_f62p2y","","","","","","","",""
"","1069","","","fullscreen","4","2.1.0","27978","sccx7hegb0_f62p2y","true","{""placements"":[{""word"":""骄傲"",""x"":483,""y"":482.2,""cx"":502,""cy"":499.6,""angle_rad"":0.777,""angle_deg"":44.5},{""word"":""冰箱"",""x"":528,""y"":384.2,""cx"":547,""cy"":401.6,""angle_rad"":0.256,""angle_deg"":14.7},{""word"":""兔子"",""x"":535,""y"":403.2,""cx"":554,""cy"":420.6,""angle_rad"":0.333,""angle_deg"":19.1},{""word"":""反感"",""x"":563,""y"":309.2,""cx"":582,""cy"":326.6,""angle_rad"":-0.101,""angle_deg"":354.2},{""word"":""协议"",""x"":566,""y"":329.2,""cx"":585,""cy"":346.6,""angle_rad"":-0.014,""angle_deg"":359.2},{""word"":""嘴唇"",""x"":566,""y"":339.2,""cx"":585,""cy"":356.6,""angle_rad"":0.028,""angle_deg"":1.6},{""word"":""剪刀"",""x"":531,""y"":350.2,""cx"":550,""cy"":367.6,""angle_rad"":0.088,""angle_deg"":5},{""word"":""长颈鹿"",""x"":523,""y"":306.2,""cx"":549,""cy"":323.6,""angle_rad"":-0.132,""angle_deg"":352.4},{""word"":""制度"",""x"":461,""y"":324.2,""cx"":480,""cy"":341.6,""angle_rad"":-0.065,""angle_deg"":356.3},{""word"":""过失"",""x"":313,""y"":320.2,""cx"":332,""cy"":337.6,""angle_rad"":-2.538,""angle_deg"":214.6},{""word"":""友情"",""x"":381,""y"":355.2,""cx"":400,""cy"":372.6,""angle_rad"":0.424,""angle_deg"":24.3},{""word"":""方法"",""x"":375,""y"":340.2,""cx"":394,""cy"":357.6,""angle_rad"":0.171,""angle_deg"":9.8},{""word"":""蚂蚁"",""x"":379,""y"":389.2,""cx"":398,""cy"":406.6,""angle_rad"":0.867,""angle_deg"":49.7},{""word"":""沮丧"",""x"":497,""y"":481.2,""cx"":516,""cy"":498.6,""angle_rad"":0.73,""angle_deg"":41.8},{""word"":""沙发"",""x"":536,""y"":399.2,""cx"":555,""cy"":416.6,""angle_rad"":0.314,""angle_deg"":18},{""word"":""暴力"",""x"":530,""y"":344.2,""cx"":549,""cy"":361.6,""angle_rad"":0.058,""angle_deg"":3.3},{""word"":""筷子"",""x"":311,""y"":532.2,""cx"":330,""cy"":549.6,""angle_rad"":1.671,""angle_deg"":95.7},{""word"":""概念"",""x"":259,""y"":521.2,""cx"":278,""cy"":538.6,""angle_rad"":1.935,""angle_deg"":110.9},{""word"":""麻雀"",""x"":292,""y"":518.2,""cx"":311,""cy"":535.6,""angle_rad"":1.778,""angle_deg"":101.9},{""word"":""椅子"",""x"":264,""y"":557.2,""cx"":283,""cy"":574.6,""angle_rad"":1.861,""angle_deg"":106.6},{""word"":""买卖"",""x"":264,""y"":465.2,""cx"":283,""cy"":482.6,""angle_rad"":2.039,""angle_deg"":116.8},{""word"":""魔力"",""x"":304,""y"":522.2,""cx"":323,""cy"":539.6,""angle_rad"":1.712,""angle_deg"":98.1},{""word"":""结果"",""x"":298,""y"":513.2,""cx"":317,""cy"":530.6,""angle_rad"":1.751,""angle_deg"":100.4},{""word"":""敌意"",""x"":305,""y"":481.2,""cx"":324,""cy"":498.6,""angle_rad"":1.744,""angle_deg"":99.9},{""word"":""纠纷"",""x"":311,""y"":497.2,""cx"":330,""cy"":514.6,""angle_rad"":1.692,""angle_deg"":96.9},{""word"":""关系"",""x"":221,""y"":506.2,""cx"":240,""cy"":523.6,""angle_rad"":2.136,""angle_deg"":122.4},{""word"":""铅笔"",""x"":308,""y"":504.2,""cx"":327,""cy"":521.6,""angle_rad"":1.704,""angle_deg"":97.6},{""word"":""愤怒"",""x"":163,""y"":350.2,""cx"":182,""cy"":367.6,""angle_rad"":3.037,""angle_deg"":174},{""word"":""团队"",""x"":228,""y"":524.2,""cx"":247,""cy"":541.6,""angle_rad"":2.064,""angle_deg"":118.3},{""word"":""洗衣机"",""x"":216,""y"":483.2,""cx"":242,""cy"":500.6,""angle_rad"":2.193,""angle_deg"":125.6},{""word"":""大腿"",""x"":105,""y"":338.2,""cx"":124,""cy"":355.6,""angle_rad"":3.117,""angle_deg"":178.6},{""word"":""慈善"",""x"":102,""y"":328.2,""cx"":121,""cy"":345.6,""angle_rad"":-3.122,""angle_deg"":181.1},{""word"":""手指"",""x"":141,""y"":437.2,""cx"":160,""cy"":454.6,""angle_rad"":2.638,""angle_deg"":151.2},{""word"":""性质"",""x"":167,""y"":286.2,""cx"":186,""cy"":303.6,""angle_rad"":-2.866,""angle_deg"":195.8},{""word"":""猫"",""x"":293,""y"":263.2,""cx"":305,""cy"":280.6,""angle_rad"":-2.146,""angle_deg"":237},{""word"":""眼睛"",""x"":146,""y"":427.2,""cx"":165,""cy"":444.6,""angle_rad"":2.669,""angle_deg"":152.9},{""word"":""床"",""x"":175,""y"":275.2,""cx"":187,""cy"":292.6,""angle_rad"":-2.803,""angle_deg"":199.4},{""word"":""鼠标"",""x"":149,""y"":263.2,""cx"":168,""cy"":280.6,""angle_rad"":-2.777,""angle_deg"":200.9},{""word"":""微波炉"",""x"":145,""y"":251.2,""cx"":171,""cy"":268.6,""angle_rad"":-2.715,""angle_deg"":204.5},{""word"":""原因"",""x"":276,""y"":430.2,""cx"":295,""cy"":447.6,""angle_rad"":2.084,""angle_deg"":119.4},{""word"":""锤子"",""x"":339,""y"":337.2,""cx"":358,""cy"":354.6,""angle_rad"":0.522,""angle_deg"":29.9},{""word"":""勺子"",""x"":321,""y"":336.2,""cx"":340,""cy"":353.6,""angle_rad"":2.796,""angle_deg"":160.2},{""word"":""缘分"",""x"":315,""y"":428.2,""cx"":334,""cy"":445.6,""angle_rad"":1.737,""angle_deg"":99.5},{""word"":""胳膊"",""x"":317,""y"":425.2,""cx"":336,""cy"":442.6,""angle_rad"":1.721,""angle_deg"":98.6},{""word"":""老鼠"",""x"":236,""y"":380.2,""cx"":255,""cy"":397.6,""angle_rad"":2.677,""angle_deg"":153.4},{""word"":""兴奋"",""x"":256,""y"":431.2,""cx"":275,""cy"":448.6,""angle_rad"":2.221,""angle_deg"":127.3},{""word"":""耳朵"",""x"":451,""y"":346.2,""cx"":470,""cy"":363.6,""angle_rad"":0.113,""angle_deg"":6.5},{""word"":""社会"",""x"":251,""y"":184.2,""cx"":270,""cy"":201.6,""angle_rad"":-2.065,""angle_deg"":241.7},{""word"":""牙刷"",""x"":173,""y"":238.2,""cx"":192,""cy"":255.6,""angle_rad"":-2.603,""angle_deg"":210.9},{""word"":""过程"",""x"":178,""y"":347.2,""cx"":197,""cy"":364.6,""angle_rad"":3.046,""angle_deg"":174.5},{""word"":""光彩"",""x"":235,""y"":183.2,""cx"":254,""cy"":200.6,""angle_rad"":-2.142,""angle_deg"":237.3},{""word"":""空调"",""x"":156,""y"":245.2,""cx"":175,""cy"":262.6,""angle_rad"":-2.678,""angle_deg"":206.5},{""word"":""乌龟"",""x"":226,""y"":400.2,""cx"":245,""cy"":417.6,""angle_rad"":2.57,""angle_deg"":147.2},{""word"":""地位"",""x"":174,""y"":345.2,""cx"":193,""cy"":362.6,""angle_rad"":3.061,""angle_deg"":175.4},{""word"":""创伤"",""x"":345,""y"":167.2,""cx"":364,""cy"":184.6,""angle_rad"":-1.486,""angle_deg"":274.8},{""word"":""死亡"",""x"":344,""y"":163.2,""cx"":363,""cy"":180.6,""angle_rad"":-1.494,""angle_deg"":274.4},{""word"":""快乐"",""x"":286,""y"":239.2,""cx"":305,""cy"":256.6,""angle_rad"":-2.02,""angle_deg"":244.3},{""word"":""身份"",""x"":320,""y"":146.2,""cx"":339,""cy"":163.6,""angle_rad"":-1.63,""angle_deg"":266.6},{""word"":""婚姻"",""x"":224,""y"":176.2,""cx"":243,""cy"":193.6,""angle_rad"":-2.171,""angle_deg"":235.6},{""word"":""错误"",""x"":295,""y"":242.2,""cx"":314,""cy"":259.6,""angle_rad"":-1.95,""angle_deg"":248.3},{""word"":""脚踝"",""x"":411,""y"":315.2,""cx"":430,""cy"":332.6,""angle_rad"":-0.214,""angle_deg"":347.7},{""word"":""老虎"",""x"":289,""y"":267.2,""cx"":308,""cy"":284.6,""angle_rad"":-2.142,""angle_deg"":237.3},{""word"":""冷漠"",""x"":434,""y"":317.2,""cx"":453,""cy"":334.6,""angle_rad"":-0.148,""angle_deg"":351.5},{""word"":""疾病"",""x"":331,""y"":166.2,""cx"":350,""cy"":183.6,""angle_rad"":-1.571,""angle_deg"":270},{""word"":""扫帚"",""x"":234,""y"":173.2,""cx"":253,""cy"":190.6,""angle_rad"":-2.117,""angle_deg"":238.7},{""word"":""难过"",""x"":452,""y"":329.2,""cx"":471,""cy"":346.6,""angle_rad"":-0.028,""angle_deg"":358.4},{""word"":""钥匙"",""x"":293,""y"":111.2,""cx"":312,""cy"":128.6,""angle_rad"":-1.741,""angle_deg"":260.3},{""word"":""天堂"",""x"":369,""y"":394.2,""cx"":388,""cy"":411.6,""angle_rad"":1.018,""angle_deg"":58.3},{""word"":""义务"",""x"":300,""y"":235.2,""cx"":319,""cy"":252.6,""angle_rad"":-1.879,""angle_deg"":252.3},{""word"":""数据"",""x"":228,""y"":181.2,""cx"":247,""cy"":198.6,""angle_rad"":-2.168,""angle_deg"":235.8},{""word"":""爱心"",""x"":324,""y"":105.2,""cx"":343,""cy"":122.6,""angle_rad"":-1.602,""angle_deg"":268.2},{""word"":""内容"",""x"":411,""y"":360.2,""cx"":430,""cy"":377.6,""angle_rad"":0.332,""angle_deg"":19},{""word"":""现象"",""x"":229,""y"":390.2,""cx"":248,""cy"":407.6,""angle_rad"":2.627,""angle_deg"":150.5},{""word"":""柜子"",""x"":138,""y"":238.2,""cx"":157,""cy"":255.6,""angle_rad"":-2.687,""angle_deg"":206.1},{""word"":""奇迹"",""x"":435,""y"":212.2,""cx"":454,""cy"":229.6,""angle_rad"":-0.858,""angle_deg"":310.8},{""word"":""恐惧"",""x"":316,""y"":271.2,""cx"":335,""cy"":288.6,""angle_rad"":-1.81,""angle_deg"":256.3},{""word"":""膝盖"",""x"":243,""y"":192.2,""cx"":262,""cy"":209.6,""angle_rad"":-2.131,""angle_deg"":237.9},{""word"":""舒心"",""x"":434,""y"":208.2,""cx"":453,""cy"":225.6,""angle_rad"":-0.879,""angle_deg"":309.6},{""word"":""债务"",""x"":380,""y"":388.2,""cx"":399,""cy"":405.6,""angle_rad"":0.848,""angle_deg"":48.6},{""word"":""大象"",""x"":423,""y"":308.2,""cx"":442,""cy"":325.6,""angle_rad"":-0.259,""angle_deg"":345.1},{""word"":""作用"",""x"":366,""y"":392.2,""cx"":385,""cy"":409.6,""angle_rad"":1.04,""angle_deg"":59.6},{""word"":""纪律"",""x"":409,""y"":222.2,""cx"":428,""cy"":239.6,""angle_rad"":-0.956,""angle_deg"":305.2},{""word"":""电视"",""x"":512,""y"":503.2,""cx"":531,""cy"":520.6,""angle_rad"":0.756,""angle_deg"":43.3},{""word"":""肩膀"",""x"":480,""y"":251.2,""cx"":499,""cy"":268.6,""angle_rad"":-0.5,""angle_deg"":331.4},{""word"":""鼻子"",""x"":495,""y"":501.2,""cx"":514,""cy"":518.6,""angle_rad"":0.799,""angle_deg"":45.8},{""word"":""斧头"",""x"":512,""y"":513.2,""cx"":531,""cy"":530.6,""angle_rad"":0.784,""angle_deg"":44.9},{""word"":""风景"",""x"":447,""y"":228.2,""cx"":466,""cy"":245.6,""angle_rad"":-0.733,""angle_deg"":318},{""word"":""熊猫"",""x"":518,""y"":492.2,""cx"":537,""cy"":509.6,""angle_rad"":0.706,""angle_deg"":40.5},{""word"":""骗局"",""x"":522,""y"":510.2,""cx"":541,""cy"":527.6,""angle_rad"":0.749,""angle_deg"":42.9},{""word"":""桌子"",""x"":500,""y"":496.2,""cx"":519,""cy"":513.6,""angle_rad"":0.769,""angle_deg"":44.1}],""n_words"":90,""words"":[""骄傲"",""冰箱"",""兔子"",""反感"",""协议"",""嘴唇"",""剪刀"",""长颈鹿"",""制度"",""过失"",""友情"",""方法"",""蚂蚁"",""沮丧"",""沙发"",""暴力"",""筷子"",""概念"",""麻雀"",""椅子"",""买卖"",""魔力"",""结果"",""敌意"",""纠纷"",""关系"",""铅笔"",""愤怒"",""团队"",""洗衣机"",""大腿"",""慈善"",""手指"",""性质"",""猫"",""眼睛"",""床"",""鼠标"",""微波炉"",""原因"",""锤子"",""勺子"",""缘分"",""胳膊"",""老鼠"",""兴奋"",""耳朵"",""社会"",""牙刷"",""过程"",""光彩"",""空调"",""乌龟"",""地位"",""创伤"",""死亡"",""快乐"",""身份"",""婚姻"",""错误"",""脚踝"",""老虎"",""冷漠"",""疾病"",""扫帚"",""难过"",""钥匙"",""天堂"",""义务"",""数据"",""爱心"",""内容"",""现象"",""柜子"",""奇迹"",""恐惧"",""膝盖"",""舒心"",""债务"",""大象"",""作用"",""纪律"",""电视"",""肩膀"",""鼻子"",""斧头"",""风景"",""熊猫"",""骗局"",""桌子""],""distance_matrix"":[[0,0.22683871060545288,0.19857578577743926,0.4032473017774954,0.3679960540596135,0.34940721648644496,0.2963641696966626,0.3852701185258396,0.3370068029115499,0.49751349346947804,0.34417970978442514,0.37724839826542195,0.29436192084706886,0.026902246293971414,0.2068893988366085,0.3077199738702027,0.37877460633597276,0.4816173068121227,0.4112645756366203,0.4903920501831155,0.46518172375965156,0.3879287537279935,0.3968052287884313,0.3763931954680877,0.3649898805770699,0.55776873638714,0.37292876307615064,0.7348066571181859,0.5478333995878508,0.5511718017093888,0.8591643788963054,0.8729054882786231,0.7322313900719555,0.7895713492858867,0.6248472291713792,0.7247942961144436,0.8003941342439185,0.84828557773304,0.8573233938537238,0.4519083419612064,0.4325622626523156,0.4618219456214685,0.373116029376793,0.37108737818866455,0.5665827217810342,0.49289023341532123,0.2947817553643143,0.8019590062617611,0.8378658764981579,0.7079193795102138,0.8249867707669598,0.8577879676129155,0.5719808886439942,0.7174412375869073,0.7300035363236824,0.7386696368247627,0.6637575319612768,0.7929831895394543,0.8514816191735881,0.6468007349504561,0.384614331032262,0.6142328487930263,0.36385853682075925,0.7443993202695323,0.8428380202926957,0.3297270748926907,0.8854300787415216,0.3039468494208994,0.6522105872070566,0.8378388617413828,0.8690927216748462,0.29893295189039676,0.5727980838632037,0.8976695810810134,0.581505924428193,0.5705450250148693,0.7993359787062814,0.5902735719916605,0.2942091067188669,0.38929184854048354,0.3116139304157991,0.5731766795559798,0.07330296927266605,0.489396609216553,0.04488446544139308,0.08746646218583262,0.5437896130255824,0.07457230593496444,0.09931838076870277,0.04392639228768055],[0.22683871060545288,0,0.04014461383734379,0.17339613328486245,0.13947561492549307,0.12252539753206826,0.06973716743330544,0.16329490780802944,0.18868759634837834,0.47512417795749556,0.31635062129168523,0.33631799261690387,0.3147533585713497,0.21403999479383473,0.03322062757061345,0.08235093175629536,0.5568484655275083,0.6404282261536498,0.5754430501918318,0.6697504750202928,0.5855839007403435,0.55776873638714,0.559067516786954,0.5153229060332756,0.5184687155065624,0.701122635146525,0.531130358974494,0.7783400173997865,0.7026275921308432,0.6804731563001578,0.9039127463353869,0.9128034358354528,0.829563914178593,0.7942948356130876,0.5736850261355848,0.8163492278289879,0.7987157152350185,0.8449837407486969,0.8470786200588502,0.5429914071876885,0.4121026600187948,0.4499066043341607,0.46057412637282413,0.45513755469652667,0.6194331186738657,0.585336853286227,0.18000677527492923,0.7252155259497772,0.8151506863452234,0.7471569162741059,0.7543324644859014,0.8434366866531632,0.6415921906578149,0.7560910665877434,0.6020301968386954,0.6099341501863212,0.5983056284373238,0.6707053429165961,0.7821074334606909,0.5785800418027497,0.28650479804450363,0.5641728303140415,0.2430296137895543,0.6232641829363968,0.7683214140104896,0.19694656499380017,0.7647704095401696,0.33655890067837047,0.5775323485246359,0.7690631964032772,0.7336758821188101,0.2515602055668483,0.6344233140775107,0.8845987274826627,0.413757422174783,0.5090398514142221,0.7294455140980717,0.4222765655175847,0.31255831841913423,0.27326388481582214,0.34270447174595464,0.42543221360658806,0.2529129149744253,0.29836819092200073,0.2560972985583652,0.2740520799041025,0.3716455943949137,0.22816903247186665,0.26585512030709474,0.24305730948783386],[0.19857578577743926,0.04014461383734379,0,0.20604357772595558,0.1679953945789739,0.1485599529126658,0.11027480199014293,0.20401267486886213,0.22770675375973093,0.5021618922698374,0.3408069307055962,0.3635054378049175,0.33083119523955556,0.18192056394205802,0.005773920663046147,0.1231931188766566,0.54794885363631,0.636781626834473,0.5700061440831247,0.6613650491610279,0.5895379863234895,0.5508478900477817,0.5539031689767224,0.5146475706092163,0.5147704243840722,0.7013548724348909,0.5265603726005861,0.7978992950653664,0.7003382681731285,0.6835173637337308,0.9239298267831846,0.9336543107411609,0.8399056852180999,0.8200558230257767,0.6058588374190629,0.8277038168139602,0.8254475424270747,0.8721764489539422,0.8752777992668886,0.552027821009035,0.4378032111699911,0.474953115510512,0.46892686880604767,0.4640061188105769,0.6361777607444425,0.5946528720608606,0.21335866834620515,0.7613990602783016,0.8449489161900515,0.7672250962670897,0.789938117330636,0.8721998083815132,0.6556407456434797,0.7763139548355732,0.642775162675984,0.6507633031776516,0.6324960496934207,0.7111837777063715,0.8176705840256757,0.6129803166545275,0.32108116585431246,0.5961219550337203,0.27973292221091334,0.6635087866951871,0.8044187956528076,0.23400083233135574,0.8053382331379871,0.35132922049329984,0.6127147476433767,0.8045088173965209,0.7752639218319624,0.2767283240744756,0.6498036239325726,0.9133539159347643,0.4565187934897422,0.5420128454856816,0.7648621211875679,0.4650652667285598,0.32890684005127707,0.3100215252729525,0.3579662176149585,0.4670556098624015,0.21569767834150147,0.341526326436398,0.22259944755447383,0.23651767584901376,0.41449802120435025,0.19011606921631186,0.22672997460540473,0.2087855090073465],[0.4032473017774954,0.17339613328486245,0.20604357772595558,0,0.04009194881853904,0.06124865544514516,0.10784255115525707,0.0676141955596049,0.2167338411975805,0.5303685744855807,0.3971119129826811,0.403113085441005,0.4246415008119361,0.389662254572754,0.19726439589963612,0.09951796804335811,0.7142274906331834,0.786953198060142,0.7264403880631501,0.8249867707669598,0.7158219398401349,0.7117433446960194,0.7098052460293394,0.6579061713917058,0.6671218099926665,0.8382358913115734,0.6812172186600371,0.8540404729153047,0.8454336526059396,0.8110730497296517,0.97515364489245,0.9804272629412133,0.9369322555777374,0.8424700195412546,0.5954884519650215,0.920709027615431,0.8420292823491982,0.8848443768638823,0.8816995354559332,0.6608622508975018,0.47815041638927486,0.5160017394397814,0.5832947398893564,0.5766983164717435,0.7102162188754562,0.701122635146525,0.2483996737507291,0.7133908867152534,0.8419217505985868,0.8215888926476854,0.7459174062331708,0.8751536451403394,0.741018098694855,0.8296703137832546,0.5515282956440902,0.5579995804957187,0.6059632907168834,0.6206654075724648,0.7731742273388947,0.5857999822347494,0.32122131527442027,0.5878295923439992,0.27247343464044765,0.5778765755801892,0.7557917631113006,0.237388566591527,0.7106428702978594,0.4484397313649024,0.5793294691267116,0.7613752865843013,0.6667454442176396,0.33871943096102447,0.7295323454740316,0.9154140411009746,0.33930388688204505,0.5296526124838882,0.723216418117539,0.34619554704498,0.42183835805394215,0.2953989816192529,0.45263180014972343,0.37399071730580874,0.4245405665386459,0.21281205859669977,0.4311362025430081,0.4451876036719123,0.2985490295065529,0.3986644429502744,0.43423310908953633,0.4175824156386806],[0.3679960540596135,0.13947561492549307,0.1679953945789739,0.04009194881853904,0,0.01830034145448331,0.0839851176033519,0.08804206161531532,0.2210435414230571,0.5365885123600199,0.3951827047650023,0.40477090343697797,0.4155847571434533,0.35278785189904177,0.1593135237671811,0.08011295536416534,0.6917073693108806,0.7687806966997149,0.7064704739250466,0.8035377406918714,0.7029494356801329,0.6905914811811081,0.689893548315169,0.6407635225576261,0.6478660606988149,0.823473746551187,0.6614744514201396,0.8571332686311092,0.8287204207839544,0.7983869793676405,0.9797802982910403,0.9859897663971885,0.9316514038287305,0.8523664039763562,0.6101527646083211,0.9162496481691047,0.8530831257629476,0.8968722564797827,0.8949390928947917,0.6515272571029732,0.48112958927822563,0.5194087645303093,0.5720954448743799,0.5658005271217824,0.7087209248117848,0.6925896472684205,0.24476839702656747,0.7361170493784794,0.8568162998370416,0.8248852568353401,0.7680857783124039,0.8890406242947799,0.7373177389170574,0.8332173698952159,0.5810432798131036,0.5878295923439992,0.6238696176260757,0.6504991842778992,0.7955701940712049,0.6036499308272603,0.32870831233764003,0.6020114245330992,0.27949984122981314,0.6065784555831184,0.7788602393356715,0.23997316375127398,0.7416376133978458,0.43915126452767933,0.5983169613033302,0.783460325161479,0.6998536541050034,0.33390618010152423,0.7269633661632501,0.9296466312294202,0.37136052271705716,0.5440055933320159,0.7448186198927832,0.37866154274523434,0.41290628764075066,0.3050548828724566,0.44392892057014854,0.4019536231679245,0.38531106847285485,0.24445650124929194,0.39360509193669774,0.40571679690986306,0.3296724554852496,0.35916614937785907,0.3940172474622099,0.3797313309105456],[0.34940721648644496,0.12252539753206826,0.1485599529126658,0.06124865544514516,0.01830034145448331,0,0.07518472657644262,0.10107907311442305,0.2230621217877071,0.5377659514338194,0.39277949330703255,0.4041018907534141,0.40957228858893213,0.3334946554138578,0.1399689641432116,0.07445510547691978,0.6786361072416991,0.7576933259918484,0.6945886024788152,0.7908771870343041,0.694468110219641,0.6781660666439662,0.6780560102962402,0.6303047267616941,0.6363874024173848,0.8139642889696775,0.6497479470866441,0.8562877586924122,0.8182765323371561,0.7898951454760387,0.9795953730085633,0.986265348411127,0.9266313662270299,0.854912027828384,0.6153910190254697,0.9116418788890543,0.8562084494785938,0.9004496473646367,0.8991286733030053,0.6448296469911189,0.4808479901565644,0.5192348090388299,0.5646212123579436,0.5584852578777105,0.705778562205702,0.6862252213990748,0.24255830902034398,0.7452801852461379,0.8618738609270158,0.8241715643406142,0.7769316462441406,0.8935618628727419,0.7332564073103602,0.8326195373714071,0.5938922389495391,0.6008351164664257,0.6307170730944474,0.6634406211049401,0.8045088173965209,0.6105009046290916,0.3313003613891104,0.6070217349109859,0.28222054146394787,0.618973120010295,0.7881600018460989,0.24090622730539715,0.7551208945389107,0.4329427996294874,0.605750634752428,0.7922494366295558,0.7145029759558599,0.33038180982682896,0.7234697342583686,0.9343113014741954,0.38588391497974817,0.549213141606742,0.7533960748851349,0.39337593146982236,0.406965359126916,0.30886558917134693,0.43799383499043243,0.4143293238322806,0.3650083982214886,0.25925168104892055,0.37399071730580874,0.38531106847285485,0.3438458724092778,0.3387726046158308,0.37333941879025734,0.35999310379133076],[0.2963641696966626,0.06973716743330544,0.11027480199014293,0.10784255115525707,0.0839851176033519,0.07518472657644262,0,0.09079452070673187,0.15614805238737733,0.466025172499055,0.31688363691867094,0.33017734336679516,0.3314633953555059,0.2854593863179867,0.10196998393683021,0.00995086947837242,0.6055714984108106,0.6817979548666212,0.6196702867036842,0.7170880174060512,0.6166313464964934,0.604035479350852,0.6030805179965293,0.5537726305950113,0.5609557066283251,0.7366884644295222,0.5746295968292455,0.781366402822282,0.7417352238673118,0.7120706154486933,0.9053518075632443,0.9125876168831116,0.8486910730067978,0.7847416900204778,0.5511431083208858,0.8338527776027548,0.7870509602721439,0.8320566405114193,0.831917897510405,0.5666305763578054,0.40716477639045756,0.44558781347068244,0.4864816772737408,0.4803218995007247,0.6290121642219875,0.6080374547696523,0.16771621650972188,0.6907977774905231,0.7965225367614869,0.7494215323610605,0.7213874183344586,0.8270281258202856,0.6557614431847876,0.7579948665490985,0.5531521548710584,0.5606696574663989,0.5702914970844729,0.6225528654693534,0.7491407157946505,0.550183072907442,0.26341932764804993,0.5422961843132421,0.21537546963754578,0.5762435967551641,0.7339256029265717,0.17121942230197407,0.7159104166664978,0.35479328392194037,0.5469956329511307,0.736485754790025,0.6806326664077685,0.25364855616004406,0.6463111476918058,0.8680058827842915,0.35530081274004877,0.4852084826672122,0.6971595715582894,0.3635302277806511,0.32887261960755004,0.24397872236669405,0.3598929672543299,0.37388827273025554,0.32560542826498856,0.2343551797364029,0.327858091623667,0.3467675112311891,0.31270225123000067,0.30092003607013246,0.3385598603306077,0.31511772614178196],[0.3852701185258396,0.16329490780802944,0.20401267486886213,0.0676141955596049,0.08804206161531532,0.10107907311442305,0.09079452070673187,0,0.14897899800190134,0.46047611612239053,0.3313071560583735,0.33521835123567245,0.3642545943031436,0.3765667839555123,0.19562441948266387,0.07798148591900388,0.6677621631122715,0.7343200510369361,0.6763461851670961,0.7765237917097675,0.6575245546963501,0.663328132635847,0.6597081376474334,0.6045479171835635,0.6163673429200601,0.7815314584973833,0.6310324265638754,0.7848368433950668,0.7908771870343041,0.7523141828669632,0.9054243259180017,0.9104589511657781,0.8718805088875744,0.7718825290484548,0.5250784410300132,0.8551423518126541,0.7714016200023176,0.8142311700750445,0.8111651257569675,0.5994491713402492,0.4094236077210645,0.44702865042407325,0.5238898948435886,0.5170379843704193,0.6431830667940753,0.6389119170433404,0.18572603273932267,0.6460347176032987,0.771601057546958,0.7523352344288275,0.678236093244433,0.8046888307840999,0.6752217698865204,0.7603285110403609,0.4902078608370005,0.4970639929157183,0.536314810660769,0.55970972778961,0.7056343288981547,0.5161242727516762,0.25135489267172895,0.5173523842806658,0.20294560319204666,0.5155989261472438,0.6886630819048938,0.17031749715534014,0.6511558091311195,0.3880681812380197,0.510050310754285,0.6936501665774097,0.6104527693771872,0.2755239341373884,0.6630724063742448,0.8449998131395744,0.28184599244327424,0.4591804329944255,0.655209502325521,0.28939342521381517,0.3613609564862035,0.22509271470630046,0.39169327443748636,0.31094899808029436,0.4186342665619036,0.15541850352576347,0.41926411949410475,0.43986478721890265,0.2397580518796513,0.39426319196245885,0.4321396335168127,0.4069819809368488],[0.3370068029115499,0.18868759634837834,0.22770675375973093,0.2167338411975805,0.2210435414230571,0.2230621217877071,0.15614805238737733,0.14897899800190134,0,0.31255831841913423,0.1798577756885439,0.18343745201093586,0.22001721582317485,0.340311058205298,0.2230621217877071,0.1501106255647776,0.543590170842891,0.5983962853858534,0.5453866814899463,0.6473388552456373,0.5133558412677012,0.53558988288361,0.5289570378778532,0.46873429867794353,0.4850363003886554,0.6389933018590803,0.5005224657317611,0.6345765310118666,0.6514856098817746,0.6070664174703437,0.7563752956238622,0.7622306742681112,0.7203330212828921,0.6288504079907912,0.3920039274695205,0.7033804761395032,0.6301791767524371,0.6745951710586187,0.673739783142551,0.45144872304376815,0.25849705692722114,0.29648554757421947,0.37906009163957316,0.3718880378456535,0.49119707144438063,0.4898761465621062,0.048494933597264624,0.5349442133658757,0.6376331746556649,0.6021803543209883,0.5647612591295463,0.6685372225805554,0.5234240811023024,0.6103527840915329,0.4130591835856518,0.42119626290959983,0.4116646572452633,0.4809981967431062,0.5925511652180503,0.3916242072210981,0.1052718470044865,0.38320532258064344,0.0564379811254332,0.4330990884217026,0.5780994320202042,0.018930468067065873,0.5752113129382154,0.24338941505432984,0.3890949280164904,0.5796921264858088,0.5475900421634795,0.12830907574090253,0.5111073883320172,0.70943548661599,0.24205829252370953,0.3260475302474729,0.5401884501012341,0.25084535808044905,0.21702309242458584,0.08486838360464206,0.24600295178050954,0.24101795518985886,0.39370244505097857,0.1577668391718769,0.3811530811105934,0.41424222753523376,0.20377114142431596,0.3751217831883809,0.41421500621382323,0.3729045928873593],[0.49751349346947804,0.47512417795749556,0.5021618922698374,0.5303685744855807,0.5365885123600199,0.5377659514338194,0.466025172499055,0.46047611612239053,0.31255831841913423,0,0.15999777695827105,0.13584233394868245,0.20050470732500067,0.5181157599443297,0.5012482540806831,0.46233478101193076,0.44887727713202297,0.4406027658856594,0.421383641010635,0.5128276752301372,0.3232188655908254,0.42796961212504187,0.4095998162036428,0.34057561259724317,0.3742798224282472,0.4392848167205884,0.3893207991048056,0.3230377758080192,0.468040394383549,0.3938570156192348,0.4419882819014624,0.4470488398728933,0.44037740272015663,0.3165070646987735,0.1314203836549818,0.41973723669254615,0.3205901648945238,0.3670580971515875,0.370339763560787,0.2443555095963185,0.0631985711628005,0.0351145315736269,0.22722381535321898,0.2209522775397578,0.20505244074135598,0.26294999098975974,0.2963034623001764,0.31556725190650126,0.3428095854074724,0.2904325629275042,0.3330082728453258,0.3678490804342542,0.2489051379465642,0.29801373400700804,0.3301568898193579,0.3380873601454036,0.17897369866653842,0.3681613298247559,0.3578088631483083,0.16760974280463162,0.20614134703559528,0.12099614395896707,0.25497270721398274,0.3274665305280597,0.3526920731172186,0.293880289998889,0.4444977964810141,0.19478784897897636,0.1802672330825588,0.3442647542591316,0.45585097130915436,0.22259944755447383,0.2300479666087488,0.40891107396239496,0.34427783617604646,0.10162321391615776,0.30794651257209205,0.34841965055393614,0.20046005636783273,0.2328383032839091,0.18754664466840698,0.28939342521381517,0.5732318706456442,0.3821274899103829,0.5440927919789255,0.5878680374717583,0.343439597659019,0.5673638437697085,0.5990305017898685,0.5443418544250476],[0.34417970978442514,0.31635062129168523,0.3408069307055962,0.3971119129826811,0.3951827047650023,0.39277949330703255,0.31688363691867094,0.3313071560583735,0.1798577756885439,0.15999777695827105,0,0.031420589733566644,0.06958088042051101,0.36203362694058444,0.34041690441728584,0.3154388807233828,0.402687774111727,0.4360890460966095,0.39283114366817745,0.4945502424367973,0.3392773423534785,0.38895586573016383,0.37739771180583714,0.3106232460402964,0.33443166084677745,0.46591376916210486,0.3506426132009534,0.46176818726388996,0.48289523624173813,0.4304030695834794,0.5863860898241322,0.5944437944900037,0.5375726910657389,0.4762440752171503,0.2788639188544656,0.5208633741450283,0.4819546700890446,0.528948497571848,0.5330703402736855,0.27201954896349373,0.0943823730614562,0.13113282239168123,0.20674866549739906,0.19914965298051326,0.3106087603187896,0.3088000306817689,0.14741666076122514,0.454835008301542,0.5056571570549306,0.43000980920025167,0.477867072698366,0.5308113078487823,0.34100507957443305,0.4387143698084684,0.4049825287567214,0.413757422174783,0.3165710422016509,0.461049182435385,0.5044813154905783,0.2996618132968479,0.10355911926094127,0.26834439409904465,0.1359894885595992,0.41369201200825323,0.49564473446472046,0.15814785451185723,0.5498544732788611,0.08395900339877126,0.3055779647798403,0.4908476234060318,0.5435278302352727,0.061811759380386806,0.32944705557886517,0.5718426007227384,0.32279384215535795,0.2233733906485993,0.45220784341676973,0.33005460324158686,0.06735642627428211,0.13133587070474692,0.0820844144503297,0.28668520093032845,0.41826776549395195,0.30303526857502067,0.39180835961572996,0.43445644496205255,0.3020539565353909,0.40995200760984,0.4436086094458111,0.390251868100169],[0.37724839826542195,0.33631799261690387,0.3635054378049175,0.403113085441005,0.40477090343697797,0.4041018907534141,0.33017734336679516,0.33521835123567245,0.18343745201093586,0.13584233394868245,0.031420589733566644,0,0.10177506700079904,0.39440611298192546,0.3624689557822204,0.32747340401905,0.4283647324278634,0.45521192075119155,0.41560646308643606,0.5165135617119571,0.35330461244061595,0.41338662870709564,0.40060514955479387,0.33252118523149293,0.35836244698476616,0.4796211221197713,0.3745927698616549,0.44935959511700074,0.4989681965891143,0.4418095834056246,0.5724981856424429,0.5794386800464647,0.536904149604254,0.4550284626428846,0.24782980906339483,0.5191304079258985,0.45944084243649214,0.505889321151935,0.508760293746548,0.28216478874407913,0.07398451975002139,0.11240033831756194,0.2240046543100354,0.2163199634515505,0.3052833799026374,0.31629371377621407,0.15948136238871413,0.4217421056606802,0.47931980448458417,0.417150125305395,0.4453497570137172,0.5058045042443251,0.33935696976507457,0.425543539050634,0.37123308007904265,0.37999831107516796,0.2839197538728844,0.4267873569871398,0.47215037812057153,0.2666312747784593,0.09040627745276902,0.23742635985061739,0.13196001346770536,0.37953542703691695,0.46284705185685326,0.16277506184508356,0.5154412183617249,0.11279330741952276,0.2720195489634938,0.45853614908942264,0.5095408982303373,0.08476493125965703,0.3259232491230333,0.5469419393906036,0.29830034847162656,0.19049208402294263,0.41968350004353994,0.30516546710666237,0.09984975292852598,0.11994760502869896,0.10946989549084309,0.2587314834444547,0.4508335053861495,0.29037062816195053,0.42498662226680445,0.4673502958281153,0.2807834198253572,0.4418095834056246,0.47601651160204267,0.42307166708384203],[0.29436192084706886,0.3147533585713497,0.33083119523955556,0.4246415008119361,0.4155847571434533,0.40957228858893213,0.3314633953555059,0.3642545943031436,0.22001721582317485,0.20050470732500067,0.06958088042051101,0.10177506700079904,0,0.31590932244695624,0.3323044747333013,0.33282569777730675,0.3344922405934301,0.37722450265781593,0.3286329776341471,0.4309320971070043,0.29079616601040176,0.3224380686665337,0.3126806654917965,0.24864350644591612,0.2690132606476215,0.4160403458407703,0.285057507851283,0.4648274102784022,0.42871213916407275,0.38519405716412375,0.5910388385073311,0.6015494422723126,0.5144895729010017,0.49936625803869017,0.33078356183081425,0.5001794938491348,0.5081696143807545,0.555967318807317,0.5632228512905164,0.233280930338408,0.13682043963083787,0.16445187941761494,0.15673213657182478,0.14979877686308807,0.30238884896845925,0.274019283214487,0.17573703389386516,0.5121182017927222,0.5413956571153448,0.4346640969485695,0.5327100440482477,0.5627894204296287,0.32394222173077636,0.44388825886709915,0.4756891993825559,0.48444017363571196,0.3731703795515401,0.5299808811170428,0.558473121063165,0.3578592240426733,0.16883020749801383,0.32012653780466305,0.19010430695665767,0.48318966603193153,0.5514996207024065,0.19839541205714828,0.617239593215404,0.02081619985959262,0.3659023095486156,0.5448396396350939,0.6135700604926692,0.08903453141707579,0.31671316859629506,0.6031704608449162,0.39268765379625564,0.28210105800039464,0.5072266666799584,0.40019972807714904,0,0.19346273848453824,0.02542299630316262,0.35863892113842144,0.37035801587438905,0.3614918507401779,0.34067476799315877,0.38456744660960196,0.36950528830697327,0.365736021280658,0.3962594307999008,0.34126910066668825],[0.026902246293971414,0.21403999479383473,0.18192056394205802,0.389662254572754,0.35278785189904177,0.3334946554138578,0.2854593863179867,0.3765667839555123,0.340311058205298,0.5181157599443297,0.36203362694058444,0.39440611298192546,0.31590932244695624,0,0.19052729795736173,0.2973489452098132,0.408072008674535,0.5113900864034613,0.4409968761846695,0.5193696295952995,0.49478758658637734,0.417539206601312,0.4265970482407313,0.406227780473867,0.3949030779764725,0.5876796324373255,0.4028053389136495,0.76169616909274,0.577630161054018,0.5810238329410115,0.8863807023915311,0.899868656882162,0.7615624844137066,0.8139948735186305,0.6436504333413822,0.7539334400548436,0.8243610273590816,0.8722595018640911,0.8807747203135229,0.48042058510786334,0.452641770852333,0.48304013668088014,0.4010270310094304,0.39878883847558716,0.593500134525038,0.521608651510761,0.3009798215418821,0.8189842892183323,0.8602307722932555,0.7344771551804556,0.8427467065771319,0.8809083645110675,0.5998637822644983,0.7439889081179413,0.7405599976036941,0.7491648761797552,0.6813334053262864,0.8045678887123582,0.8694677184635312,0.6639857507695005,0.3954735364953832,0.6330784132981627,0.37145152661801983,0.7559234711830658,0.8602518235866503,0.33486893719174615,0.8975560811259745,0.326867988576298,0.6687367655122592,0.8558408878769305,0.8791797104979693,0.3133993965433875,0.6002517505277497,0.9209967042114893,0.5853831825849194,0.5879103242233937,0.8170808075489202,0.5941699823090386,0.3155529909962273,0.3980475505242964,0.3345528094684517,0.5800311823815596,0.05374039882966047,0.48856091426821074,0.03982765263105305,0.07231432237005825,0.5466775253939742,0.0475154109203774,0.07859615788004044,0.029590859883383863],[0.2068893988366085,0.03322062757061345,0.005773920663046147,0.19726439589963612,0.1593135237671811,0.1399689641432116,0.10196998393683021,0.19562441948266387,0.2230621217877071,0.5012482540806831,0.34041690441728584,0.3624689557822204,0.3323044747333013,0.19052729795736173,0,0.11491197514338897,0.5540866868253612,0.6421311343994028,0.5756197365568141,0.6674606973561645,0.5935686762115097,0.5566861464546086,0.5594674701558872,0.519456592136703,0.5200822956600903,0.7060765514060537,0.5320184443007006,0.7988545373118237,0.7054836538724224,0.6877429043616758,0.9248042829770833,0.9343403826681069,0.8428031073890264,0.8195506085792633,0.6035975072563776,0.8303983770136375,0.824698658224182,0.8713169075667356,0.8741571898520683,0.5550929212649318,0.437189564069439,0.47452043443725056,0.47207866344093835,0.46705560986240147,0.6377076312437321,0.5976819915423124,0.21049463384984177,0.757923224170974,0.8433964308986847,0.7680592647901857,0.7866569621953816,0.8709297081771797,0.6577446128479183,0.7771151112190283,0.6375090611087016,0.6454569835459719,0.6296408230801447,0.706047719214721,0.8144062634465945,0.6100564356567497,0.31798947443097453,0.5939226828829974,0.2759395476058369,0.6584764666290328,0.8009763737790283,0.2300479666087488,0.800165079788161,0.35310054973338556,0.6095448976434015,0.8012814571607909,0.7695661431256985,0.27608608694794023,0.6516278936157123,0.9120912883631708,0.44999185815655723,0.5395021967288967,0.761639727301304,0.45851154028121094,0.33032048305781775,0.30623240932800094,0.35964250494473965,0.4613232203155214,0.2244844414052192,0.3342700616609547,0.23130191344101667,0.24529955036926276,0.407878560159813,0.19889105204946225,0.23545316827072796,0.21751806902626797],[0.3077199738702027,0.08235093175629536,0.1231931188766566,0.09951796804335811,0.08011295536416534,0.07445510547691978,0.00995086947837242,0.07798148591900388,0.1501106255647776,0.46233478101193076,0.3154388807233828,0.32747340401905,0.33282569777730675,0.2973489452098132,0.11491197514338897,0,0.6121832656980277,0.6869038177194898,0.625389689528451,0.7233290139758537,0.6198599561079308,0.610167583103861,0.6087767886616786,0.5584731210631649,0.5664112098554946,0.7406363673826252,0.580261004688043,0.779339467128309,0.746354044595915,0.71529401243289,0.9029504306988815,0.909891795784491,0.8494934912161798,0.780523208297219,0.5449723059891356,0.8343710649674146,0.7824690108115361,0.8272251451629173,0.8267078696098508,0.5685692939275124,0.4043696276664988,0.44278899097867286,0.4889858647778133,0.4827082040603524,0.6283181174199757,0.609741408404637,0.1654256857789183,0.6825140709159409,0.7907541405623392,0.7472901401040548,0.7133179544981116,0.821610930403718,0.6558545376093412,0.7557917631113006,0.5427167542922458,0.5501707539439892,0.5631747086912268,0.6121795732458045,0.7410486287394583,0.5430288491517131,0.25805367694687426,0.5362516290024709,0.20954562923566689,0.5660720225737472,0.7256146893326905,0.16628658920520592,0.7053842549322358,0.35632004151383606,0.5394896352284363,0.7284648454183089,0.6695208347823705,0.2529129149744253,0.646006718117911,0.8625302230264351,0.3436296886697178,0.47892875259517487,0.6892146013004447,0.3518096952629082,0.33017734336679516,0.23761523710900398,0.36121130545265473,0.36323263732738825,0.3380540608127579,0.22204500159533685,0.339840971411905,0.35924140505862173,0.30100970986901554,0.31347835731424756,0.35122022227756206,0.32721898957104006],[0.37877460633597276,0.5568484655275083,0.54794885363631,0.7142274906331834,0.6917073693108806,0.6786361072416991,0.6055714984108106,0.6677621631122715,0.543590170842891,0.44887727713202297,0.402687774111727,0.4283647324278634,0.3344922405934301,0.408072008674535,0.5540866868253612,0.6121832656980277,0,0.11027480199014293,0.0472901322062865,0.11045511908982059,0.1714278983266511,0.023003547328469102,0.0460557586564827,0.10644028684306531,0.07158707758351954,0.19666235990120495,0.05700837155412428,0.49698676529862357,0.17471748251863145,0.21167234534708107,0.6001274771856506,0.6194951559612,0.4120752983858998,0.6045553948270266,0.572821753386457,0.41385006900824295,0.6238623703706507,0.6662975986231459,0.6851631624385751,0.22683871060545288,0.41688512769967423,0.4152970470683217,0.218822367896762,0.22541116116474824,0.3582618584716365,0.24211390027971483,0.4931924662996403,0.7496811189610787,0.6892375717397271,0.4826333710194958,0.7583022552020559,0.6922303358469587,0.33162634989321627,0.49109134351183237,0.7783400173997865,0.7866368256279015,0.6237753967694318,0.8199564610822849,0.7781190362691923,0.6160518577635835,0.5062641318911018,0.5637681816234237,0.524945078286685,0.778267333136924,0.7795862275255901,0.5238079759854939,0.895154094321527,0.316051743601487,0.6304661116396009,0.7657638621045977,0.9075448037210826,0.4210570141524099,0.3464946450833496,0.7240792074368818,0.7284741617455691,0.5534012446958451,0.7360371389612097,0.7356712848004142,0.33733400002262826,0.5307900309934819,0.3175929459711492,0.6899722237768436,0.42984715721702493,0.6959061461277809,0.39470322418897297,0.42732082946761296,0.7068385777302788,0.4463618897493579,0.4491637154831266,0.4070761584673866],[0.4816173068121227,0.6404282261536498,0.636781626834473,0.786953198060142,0.7687806966997149,0.7576933259918484,0.6817979548666212,0.7343200510369361,0.5983962853858534,0.4406027658856594,0.4360890460966095,0.45521192075119155,0.37722450265781593,0.5113900864034613,0.6421311343994028,0.6869038177194898,0.11027480199014293,0,0.0676141955596049,0.07445510547691978,0.116822765911291,0.09292545210586446,0.08184383319086198,0.12691789848748242,0.11905763947351904,0.08406341322795804,0.10753475721329495,0.4149765331080274,0.06336988561255047,0.10855743496066657,0.5067812746435444,0.5272805095153845,0.305717794128627,0.5348977628186304,0.549907884007076,0.3102826545151755,0.5560526517663449,0.5948010827573755,0.6160261716631369,0.19430492711198347,0.4246415008119361,0.412862592760458,0.22837528401977591,0.23605253702606555,0.301494984021221,0.18892444095235011,0.5507125290709922,0.7154932162409913,0.6274287667131563,0.4060778840766264,0.7192361993330972,0.6249014962956543,0.2643130458823745,0.41358297224162677,0.7734726815163966,0.7812650356329576,0.6008087830596529,0.8067925754895818,0.7361170493784794,0.596595695993291,0.5426584768151568,0.5421420329215232,0.5698753097899074,0.7690631964032772,0.7406485858194494,0.577250556319395,0.8738878232670725,0.3551042306806742,0.6128180380894754,0.7246912917355166,0.8944355351593289,0.46892686880604767,0.2834364260270468,0.6530144084520707,0.7549530846179544,0.5435278302352727,0.6990678694261272,0.7613307089150247,0.38023547064220997,0.5699704649659127,0.35422145212044237,0.7099964256563178,0.5376105083129943,0.7406852399254824,0.5018155344980199,0.5365169422469183,0.7390095224540845,0.5524860062007768,0.5580522158510434,0.5134262225941282],[0.4112645756366203,0.5754430501918318,0.5700061440831247,0.7264403880631501,0.7064704739250466,0.6945886024788152,0.6196702867036842,0.6763461851670961,0.5453866814899463,0.421383641010635,0.39283114366817745,0.41560646308643606,0.3286329776341471,0.4409968761846695,0.5756197365568141,0.625389689528451,0.0472901322062865,0.0676141955596049,0,0.09931838076870277,0.12474941749511392,0.023946839841930984,0.013632955546145964,0.0805762155457388,0.05734801872993731,0.15046624821188415,0.04230130899777847,0.4484598577116808,0.13399785582403234,0.16189582772559416,0.5502200281519498,0.5697127164577924,0.3622202599798928,0.5586955876629687,0.5406607913670659,0.3636789324410616,0.5784706696188957,0.6201407066924889,0.639576847240824,0.18763006985665923,0.3955761323234798,0.38980684956516054,0.1949829824913117,0.20224958525730666,0.31442435457280116,0.19767229601445108,0.49624568234689004,0.7142401589455928,0.6454604865147762,0.43503762246988864,0.7212902019288195,0.6470838277771107,0.2851678832364842,0.4433389633292293,0.7536122676505435,0.7617318143936647,0.5918031204649122,0.792135172948507,0.7402177646672803,0.5853059650602324,0.49853811654072283,0.5320226899693706,0.5215393680524457,0.7518539092216886,0.7426618860546752,0.5248030744677773,0.8644963296924584,0.30809988055297377,0.6004324660663914,0.728129378576192,0.8799209766396132,0.4185911653254762,0.3010694777101327,0.6781093731705126,0.7169208081628946,0.5259380375849771,0.6996500165293164,0.7237635953908537,0.3315924075755857,0.5245447877785117,0.3084428590421233,0.6753992568088761,0.4669976171044978,0.6930107852578584,0.4311885218157472,0.466030015522184,0.6978632331621047,0.4818750360383823,0.4875200820204011,0.44280427714969883],[0.4903920501831155,0.6697504750202928,0.6613650491610279,0.8249867707669598,0.8035377406918714,0.7908771870343041,0.7170880174060512,0.7765237917097675,0.6473388552456373,0.5128276752301372,0.4945502424367973,0.5165135617119571,0.4309320971070043,0.5193696295952995,0.6674606973561645,0.7233290139758537,0.11045511908982059,0.07445510547691978,0.09931838076870277,0,0.1930808359577221,0.11027480199014293,0.11550761496902688,0.1810463951313418,0.15943941898976566,0.13917239350433783,0.14380970385116523,0.48791817176528063,0.10107907311442305,0.1773059464783192,0.5738307482960143,0.5948808732994663,0.36325744576678026,0.6105009046290916,0.625389689528451,0.37120273019673755,0.6319346177828751,0.6698720175359312,0.6915307792288782,0.26888797350141863,0.4924090283802131,0.48345590133890276,0.29265357411101695,0.30017172296633576,0.3789471125547338,0.2660915782098384,0.597931523962486,0.7925064699050782,0.7040490333594751,0.4806742556431234,0.7965481064410578,0.7007192633823639,0.3412888940869971,0.4878904085377536,0.8459983827100029,0.8539211943633405,0.6764130559691994,0.8811139315219941,0.8135387669188946,0.6716420244995005,0.6005077482367813,0.6174043766379653,0.6238696176260757,0.8425371849096478,0.8179639299237195,0.6268628181693763,0.9496285028341748,0.41025992888443447,0.6875949043286423,0.8020831617452474,0.9688609227173212,0.5209023975020257,0.3606745502451229,0.7280423805626421,0.8177148693704284,0.6165800212776875,0.776258571793323,0.8244269173704301,0.43389529163378565,0.6266969025040878,0.410452263230312,0.7750449865916149,0.5379759387459042,0.7953397555879574,0.5036166994153964,0.53384521616828,0.7994209089676244,0.5558250682532382,0.5559551273211675,0.5165441675719605],[0.46518172375965156,0.5855839007403435,0.5895379863234895,0.7158219398401349,0.7029494356801329,0.694468110219641,0.6166313464964934,0.6575245546963501,0.5133558412677012,0.3232188655908254,0.3392773423534785,0.35330461244061595,0.29079616601040176,0.49478758658637734,0.5935686762115097,0.6198599561079308,0.1714278983266511,0.116822765911291,0.12474941749511392,0.1930808359577221,0,0.14541001332100437,0.12236244112751023,0.09079452070673187,0.1181798825586848,0.12362435295278248,0.12230807523894215,0.3232188655908254,0.14430395833331,0.09242693681651286,0.4307278956254238,0.4492039028379268,0.2658635688129117,0.4309373317789238,0.43008848984355047,0.2612190921782564,0.45072337851214717,0.4924273685638857,0.5118138424492924,0.07585001647384243,0.3131983165188319,0.29759085669427593,0.13128513740680786,0.13851586016900191,0.1877372772009244,0.0714346740932302,0.46943199194229285,0.596569176393334,0.5182595855037654,0.30820938283836724,0.6012299798525556,0.5193652810882083,0.15746986851195896,0.3167060637770861,0.655209502325521,0.6628916339290202,0.48097473003684327,0.6873218432568513,0.6188525879414486,0.4768740523221117,0.4446399025019405,0.42236735691176563,0.477413375206967,0.6500993275916481,0.6226509011074716,0.4915600517653525,0.7540534695168637,0.2671530777235666,0.4931924662996404,0.6071669412655416,0.7748989955330846,0.3820331097477436,0.17339613328486245,0.5503678244510138,0.6478695507022932,0.4250874513728078,0.5805958378103926,0.6537722853608844,0.2937501921995754,0.4732629595458312,0.2643385367902607,0.6001350096322485,0.5317593947715936,0.6450785514714082,0.4952984054153107,0.5354000604604513,0.6352103865786723,0.5414290365362816,0.5552068738655778,0.5043335840125017],[0.3879287537279935,0.55776873638714,0.5508478900477817,0.7117433446960194,0.6905914811811081,0.6781660666439662,0.604035479350852,0.663328132635847,0.53558988288361,0.42796961212504187,0.38895586573016383,0.41338662870709564,0.3224380686665337,0.417539206601312,0.5566861464546086,0.610167583103861,0.023003547328469102,0.09292545210586446,0.023946839841930984,0.11027480199014293,0.14541001332100437,0,0.020041014132711973,0.08440188391967295,0.052321812257363286,0.17715471332383367,0.036288001620923584,0.4710399773439873,0.15903340642859065,0.18860463157615867,0.5746767848221758,0.5939493200511738,0.3888167540901287,0.5786269092999893,0.5503678244510137,0.38994561070194694,0.5979882214272203,0.6403434920442683,0.6592692530740828,0.20196165080778883,0.3983023458157085,0.395091419654421,0.19871096022631743,0.20558671505958168,0.3325685719980808,0.21627853271516867,0.48576184685471885,0.7262254848323868,0.6636178371416037,0.4566176475859868,0.7343693422146652,0.6663926212103553,0.3056294882259409,0.4650798254419244,0.7586870621370105,0.766918319614768,0.6014104029127791,0.7991434368228466,0.7539304390744306,0.5941053138881135,0.49365919173841827,0.5414498976351851,0.5143886046616747,0.7579680014477014,0.7556839849552589,0.5153886384381902,0.8733332892486992,0.3029758847041591,0.6087767886616786,0.7416498154062429,0.8868301059174801,0.41080372913835717,0.3205831451976089,0.6981451480252963,0.7143161641217844,0.5325955462912895,0.7122865956341917,0.7213591955607824,0.3253426485742202,0.5188997814863086,0.3039764488812081,0.6744610639821373,0.44217711374558416,0.6857405715591305,0.4065495946394282,0.4407461192192959,0.6938327392015683,0.45758036315709527,0.46234942514741983,0.41841332612968857],[0.3968052287884313,0.559067516786954,0.5539031689767224,0.7098052460293394,0.689893548315169,0.6780560102962402,0.6030805179965293,0.6597081376474334,0.5289570378778532,0.4095998162036428,0.37739771180583714,0.40060514955479387,0.3126806654917965,0.4265970482407313,0.5594674701558872,0.6087767886616786,0.0460557586564827,0.08184383319086198,0.013632955546145964,0.11550761496902688,0.12236244112751023,0.020041014132711973,0,0.06680550679462008,0.04092701530375544,0.16178559363525302,0.025661635585895747,0.44810248157397314,0.14801947228777998,0.16916036065635795,0.552289687410656,0.5714591716552321,0.36877282230328146,0.5556177240282302,0.5304665183149787,0.3692307824546757,0.5750187825656907,0.617316497593206,0.6362843667961205,0.18000677527492923,0.38216877395960075,0.3774275674817194,0.18174851999245406,0.1888770954178485,0.309760178019189,0.19335865690783355,0.47974347868787137,0.7053586013286953,0.6408517294328163,0.43357802518849287,0.7130737360588127,0.6434501747663669,0.28257869192523294,0.4420495334401294,0.7412470435030916,0.7494154943978101,0.5815681008220958,0.7806391651082392,0.7324043847115093,0.5746492589614168,0.48290926075329527,0.5216779258204806,0.5054740298562265,0.739942641820413,0.7344124692924725,0.5084139630100648,0.8539026384297057,0.2923460990620484,0.5895494868718967,0.7201916906640095,0.8683891677405846,0.40240211765850664,0.29759085669427593,0.6751313341604035,0.7018867943029637,0.514226136137508,0.6911578304208879,0.7087847541374929,0.31563141810447154,0.508760293746548,0.2928302275622045,0.6608348768003479,0.4536178435819832,0.6769477856356068,0.41766342062161066,0.45312010826741883,0.6824643648072991,0.468040394383549,0.47447762049775305,0.42906452393106015],[0.3763931954680877,0.5153229060332756,0.5146475706092163,0.6579061713917058,0.6407635225576261,0.6303047267616941,0.5537726305950113,0.6045479171835635,0.46873429867794353,0.34057561259724317,0.3106232460402964,0.33252118523149293,0.24864350644591612,0.406227780473867,0.519456592136703,0.5584731210631649,0.10644028684306531,0.12691789848748242,0.0805762155457388,0.1810463951313418,0.09079452070673187,0.08440188391967295,0.06680550679462008,0,0.03340821284784742,0.1837904309047815,0.04642471205939459,0.40877870363191404,0.18496626835044022,0.17181812083647707,0.5210367890448084,0.5388066892625384,0.35890890773472395,0.506174916263466,0.4634074648480769,0.3549011940129649,0.5243036060599995,0.5683625987675524,0.5857845504721083,0.12203589126113044,0.3123567021251166,0.30792459668523575,0.11194676323512272,0.11905763947351904,0.2577054003377818,0.14620373216922608,0.42082661773395286,0.6404105741344114,0.5864169214478772,0.3905001659497101,0.649452084178782,0.5918794946561136,0.2381527257437265,0.39947232663231497,0.6716756938516675,0.6798713351265823,0.5143886046616747,0.7117433446960194,0.6696187791778185,0.5068525635148944,0.41679315067034817,0.4543932291700094,0.44172786875038006,0.67068174060006,0.6706952277393298,0.447694424720593,0.786044005131593,0.2271942147829087,0.5214354257034244,0.6571530402308033,0.7994407247352087,0.33986084727493926,0.24969739618154949,0.6254547533067631,0.6337958093702154,0.4452078760477275,0.6269962403666322,0.6405694248780072,0.2516405003357789,0.4433389633292293,0.22696715050573119,0.5918794946561136,0.44068468774760433,0.6129950671315213,0.4042023127245398,0.4434407357133159,0.6153799990634488,0.4515936530723069,0.4636265736818658,0.41385006900824295],[0.3649898805770699,0.5184687155065624,0.5147704243840722,0.6671218099926665,0.6478660606988149,0.6363874024173848,0.5609557066283251,0.6163673429200601,0.4850363003886554,0.3742798224282472,0.33443166084677745,0.35836244698476616,0.2690132606476215,0.3949030779764725,0.5200822956600903,0.5664112098554946,0.07158707758351954,0.11905763947351904,0.05734801872993731,0.15943941898976566,0.1181798825586848,0.052321812257363286,0.04092701530375544,0.03340821284784742,0,0.18977467232969786,0.013218434679300051,0.44160526860881716,0.1830227618023462,0.1869138077519147,0.551647076038542,0.5698792749044562,0.38124176583358793,0.541479101830913,0.49858793416020647,0.3790184716534169,0.5598429250433499,0.6036124858817674,0.621317025151822,0.15810556396903183,0.34320347741229534,0.3408135375076779,0.14430395833331,0.15098339249717396,0.29320622492431647,0.1801060409789174,0.43588724392163863,0.6762826518077413,0.6225092891427535,0.42428546849060744,0.6855921411711253,0.6275872853751844,0.2718873687794996,0.43314596413882683,0.7040940096984395,0.7123628083665555,0.5494804536084951,0.7453773206260915,0.7058714970094864,0.5415792186124454,0.43961338890423923,0.4894611895185814,0.46167042886211435,0.7037887569312443,0.7068161768677961,0.4644776873640636,0.8206269215826956,0.2489412037292749,0.5559226153913837,0.6933762178942263,0.8329810054097686,0.3585132772789682,0.28432322363890855,0.6608622508975018,0.6594613008517086,0.4788156181960906,0.6630451231113438,0.6664503069152116,0.271953466814063,0.46525449469656077,0.24963446659041175,0.6192469697024545,0.4256018408387716,0.6331391199063228,0.3892686865507047,0.42676621573233187,0.6394637162312237,0.43832851530572464,0.44757848936269234,0.3998390109069749],[0.55776873638714,0.701122635146525,0.7013548724348909,0.8382358913115734,0.823473746551187,0.8139642889696775,0.7366884644295222,0.7815314584973833,0.6389933018590803,0.4392848167205884,0.46591376916210486,0.4796211221197713,0.4160403458407703,0.5876796324373255,0.7060765514060537,0.7406363673826252,0.19666235990120495,0.08406341322795804,0.15046624821188415,0.13917239350433783,0.12362435295278248,0.17715471332383367,0.16178559363525302,0.1837904309047815,0.18977467232969786,0,0.182472481557533,0.3517328630309792,0.03815115956350636,0.04619444036020592,0.4321396335168127,0.4533640663994135,0.2221660880574288,0.47982816891775476,0.5331423704645744,0.22916910946405325,0.5021484022570992,0.537190167964168,0.5600567819662136,0.19694656499380017,0.43632177957732643,0.4173771331572052,0.2573392084826386,0.2647121245979662,0.2674471993390022,0.17339613328486245,0.5941775898981686,0.6862911338182404,0.5773092743127098,0.3480639643939752,0.6860966740486074,0.5702914970844729,0.2231726210599348,0.354475712512146,0.7663752612738838,0.7736657378120292,0.5827094171710528,0.7928005283393271,0.700399628798079,0.5813815517947463,0.5712218708748656,0.526624710348684,0.6039494072289752,0.7586691684508389,0.7073056346940916,0.6172762155368253,0.8527885461320117,0.3925900509550838,0.5986568480237664,0.689873878053911,0.8794500359022405,0.5077205969941867,0.24482339671279635,0.5949872441279417,0.7720671891709797,0.5372616488953764,0.667907766573897,0.7777350782823717,0.4190219796091113,0.599886389205525,0.39013054936616004,0.7229379811792905,0.6172762155368253,0.7716978249104091,0.5811055054530206,0.6174226832055807,0.7606349603414678,0.6307349951098662,0.638614597846296,0.5920474833724102],[0.37292876307615064,0.531130358974494,0.5265603726005861,0.6812172186600371,0.6614744514201396,0.6497479470866441,0.5746295968292455,0.6310324265638754,0.5005224657317611,0.3893207991048056,0.3506426132009534,0.3745927698616549,0.285057507851283,0.4028053389136495,0.5320184443007006,0.580261004688043,0.05700837155412428,0.10753475721329495,0.04230130899777847,0.14380970385116523,0.12230807523894215,0.036288001620923584,0.025661635585895747,0.04642471205939459,0.013218434679300051,0.182472481557533,0,0.44783552317861236,0.1727511202064153,0.18360793896903627,0.5559226153913837,0.5744998099678658,0.3805198685468891,0.5503678244510137,0.5128056565756302,0.3793037748574972,0.569081734499642,0.612393698852978,0.6305198974631773,0.16883020749801383,0.3590218655980533,0.35614299210760847,0.15966299215178983,0.16646092583887676,0.3026119067233073,0.188022869321221,0.4512087372446185,0.6897919126205745,0.6327962300663647,0.4314552521049365,0.6986568417011644,0.6370833462475336,0.2792746149130959,0.44019292944102484,0.719607230860428,0.7278559213767456,0.5637681816234237,0.7604802634467175,0.7186698516118527,0.5561176586129493,0.4557717575803165,0.5037646398730172,0.47760719424058135,0.7190883624994415,0.7199183731222343,0.48003982953204605,0.8352630703635533,0.26508519182398016,0.5706044294145396,0.7062527226641375,0.8481254606301336,0.37435206410150795,0.29261515721869774,0.6698551379438532,0.6756938495653805,0.4939106755030813,0.6762826518077413,0.6826830447334706,0.2879917287246152,0.48135475070139705,0.26582132362877586,0.6354488096522979,0.43181063797423797,0.6490655199168486,0.3956217219936873,0.43222836748524956,0.6556648869210877,0.44532442441994863,0.453299355524698,0.40658287132893317],[0.7348066571181859,0.7783400173997865,0.7978992950653664,0.8540404729153047,0.8571332686311092,0.8562877586924122,0.781366402822282,0.7848368433950668,0.6345765310118666,0.3230377758080192,0.46176818726388996,0.44935959511700074,0.4648274102784022,0.76169616909274,0.7988545373118237,0.779339467128309,0.49698676529862357,0.4149765331080274,0.4484598577116808,0.48791817176528063,0.3232188655908254,0.4710399773439873,0.44810248157397314,0.40877870363191404,0.44160526860881716,0.3517328630309792,0.44783552317861236,0,0.3928942627365468,0.30798303561817336,0.12322911131197374,0.13520285357186684,0.18826053701989287,0.1336658654916501,0.3181097522603522,0.16506116957827038,0.15720070645565942,0.1848091090524101,0.20929969110006771,0.29209219097427286,0.3731462248878098,0.33507728518803076,0.36113645687321944,0.36208962686965657,0.1652097715241352,0.2598572771837249,0.61090805183893,0.39745239774091323,0.23665988481971326,0.029590859883383863,0.38461433103226206,0.22128673023677567,0.16841993455907558,0.02274029030006672,0.5471071336007748,0.5517003141659417,0.35012838978654914,0.5456682780767907,0.3899918535268194,0.3605121193947244,0.5308283287224544,0.3185833504012735,0.5788807093090421,0.528059555880322,0.40347648549992504,0.6146044351556749,0.5768902892333962,0.44597248876027035,0.37823874520542167,0.38292878943398606,0.6218589148570186,0.5260196266114048,0.16148206898867443,0.24158511617810058,0.6470943103292129,0.36400710846149487,0.37446641847577655,0.6491073216951457,0.46655276801456624,0.5583517384857282,0.438837772084736,0.5880602256018914,0.809212557040533,0.7048453340178834,0.7743878109259267,0.818002665885917,0.6558131639335567,0.8119459582960507,0.8347399118389641,0.7798038926922336],[0.5478333995878508,0.7026275921308432,0.7003382681731285,0.8454336526059396,0.8287204207839544,0.8182765323371561,0.7417352238673118,0.7908771870343041,0.6514856098817746,0.468040394383549,0.48289523624173813,0.4989681965891143,0.42871213916407275,0.577630161054018,0.7054836538724224,0.746354044595915,0.17471748251863145,0.06336988561255047,0.13399785582403234,0.10107907311442305,0.14430395833331,0.15903340642859065,0.14801947228777998,0.18496626835044022,0.1830227618023462,0.03815115956350636,0.1727511202064153,0.3928942627365468,0,0.08502333418620295,0.47228421657155273,0.4936317494422234,0.2592343577532812,0.520672551429384,0.5668697889646629,0.2677158309054622,0.5429123546084642,0.5782245069572209,0.6010043752400185,0.22195414397881733,0.4605006206278992,0.4440508834895945,0.2731323002454897,0.28073539041602286,0.3043905420674441,0.20400170218949223,0.6051570435288904,0.7233415235493691,0.6177557684114383,0.38901960873459906,0.723969852439797,0.6111485119576057,0.2613222345067602,0.39550203798594574,0.7977432868309362,0.8051949034764355,0.6169062306671134,0.826201229175969,0.7387860115983294,0.6147919829538036,0.5890969635682926,0.5599922299457138,0.6194513655766668,0.7910059361789633,0.745240720396136,0.6300033649057172,0.8881183295304732,0.40576681261872094,0.6318093901196029,0.7280796666932458,0.9132126080073387,0.5207592976457196,0.282610505787972,0.636056919054405,0.7950580181930519,0.5679370483273303,0.7053553945629294,0.8010102776492223,0.43172181874306936,0.6172432555448504,0.4040237676471325,0.7474475559573486,0.6039756043841948,0.7888860698759107,0.5681955980752253,0.6027768622933959,0.7818093685385836,0.6188635463676027,0.6243477513793959,0.5798090645928552],[0.5511718017093888,0.6804731563001578,0.6835173637337308,0.8110730497296517,0.7983869793676405,0.7898951454760387,0.7120706154486933,0.7523141828669632,0.6070664174703437,0.3938570156192348,0.4304030695834794,0.4418095834056246,0.38519405716412375,0.5810238329410115,0.6877429043616758,0.71529401243289,0.21167234534708107,0.10855743496066657,0.16189582772559416,0.1773059464783192,0.09242693681651286,0.18860463157615867,0.16916036065635795,0.17181812083647707,0.1869138077519147,0.04619444036020592,0.18360793896903627,0.30798303561817336,0.08502333418620295,0,0.39545643462250274,0.41611080936378925,0.19738912013047358,0.43352078866711874,0.48475695668657065,0.19992347859330784,0.45556870994453497,0.49172537218976814,0.5141251164638071,0.1567463558508212,0.39444612165787163,0.37355664345697354,0.22545093576267497,0.2324141421919891,0.2182687236020285,0.12825717266447775,0.563944499723866,0.6370833462475336,0.5299595711102728,0.30232189986661623,0.6369378287606088,0.5239933530950003,0.17401313482902814,0.30912040795855156,0.7189845440807434,0.7261881038923625,0.5341201762729471,0.7444540248636908,0.6513502381068331,0.5331042380396196,0.5343865418103811,0.47839584602491636,0.5692246592704343,0.7107988209488973,0.6581570244717503,0.5851978434959703,0.8038080707032124,0.36144199180567155,0.5504827498436413,0.6407776364697921,0.8309460502026427,0.475845767922108,0.19562441948266387,0.5497311980549994,0.7303629256636115,0.49042427624994933,0.6187064571359066,0.7357973558503859,0.38812045374058285,0.5634314219392393,0.35826814607419305,0.6801107971092641,0.614453620129831,0.734957501415606,0.5780134273828343,0.6162903206775855,0.7204335062585758,0.6260616907318333,0.6368881322836749,0.5880525392765105],[0.8591643788963054,0.9039127463353869,0.9239298267831846,0.97515364489245,0.9797802982910403,0.9795953730085633,0.9053518075632443,0.9054243259180017,0.7563752956238622,0.4419882819014624,0.5863860898241322,0.5724981856424429,0.5910388385073311,0.8863807023915311,0.9248042829770833,0.9029504306988815,0.6001274771856506,0.5067812746435444,0.5502200281519498,0.5738307482960143,0.4307278956254238,0.5746767848221758,0.552289687410656,0.5210367890448084,0.551647076038542,0.4321396335168127,0.5559226153913837,0.12322911131197374,0.47228421657155273,0.39545643462250274,0,0.019238841324731856,0.2215195390232142,0.1694635434057444,0.4145905037338269,0.20584790180803247,0.18688988582213295,0.18232546422831414,0.20775338170989824,0.4108695957689954,0.4957540515717452,0.45740278256294853,0.48396927729580563,0.48542711317658377,0.2902079871609917,0.37498358980601165,0.7346711788114967,0.449299333495351,0.25474367505337564,0.15376098433787053,0.42818038801005776,0.2230621217877071,0.28677927959288435,0.14481192747799093,0.6251040521342874,0.6283684884476664,0.4367197267137175,0.6113851807405926,0.42543221360658806,0.45072337851214717,0.6510550999824647,0.4173609223760342,0.6996661803976528,0.602337979590827,0.44340511801806054,0.736854276461298,0.6252197690057237,0.572213927312243,0.4670411123436895,0.4220949245577563,0.6785561232237167,0.6508987964586839,0.2835870581673568,0.22143858944256795,0.749898378446613,0.4688546642175429,0.42519356162462196,0.7509988002691061,0.5927494684209638,0.6778024795245793,0.5650812363938408,0.6905227021082052,0.9330720889249383,0.8175155664965895,0.8979419226356069,0.9412867523371543,0.7627262426404883,0.9364898930423382,0.9584484911847369,0.9037724722445781],[0.8729054882786231,0.9128034358354528,0.9336543107411609,0.9804272629412133,0.9859897663971885,0.986265348411127,0.9125876168831116,0.9104589511657781,0.7622306742681112,0.4470488398728933,0.5944437944900037,0.5794386800464647,0.6015494422723126,0.899868656882162,0.9343403826681069,0.909891795784491,0.6194951559612,0.5272805095153845,0.5697127164577924,0.5948808732994663,0.4492039028379268,0.5939493200511738,0.5714591716552321,0.5388066892625384,0.5698792749044562,0.4533640663994135,0.5744998099678658,0.13520285357186684,0.4936317494422234,0.41611080936378925,0.019238841324731856,0,0.24373948601209916,0.16193714651708635,0.412928133359587,0.22790358121982066,0.1774066981551148,0.16795553990818768,0.192674973388831,0.42688776374960086,0.5025080127352843,0.4640887992523697,0.4985335874208555,0.49973237694387346,0.3033542596743868,0.39188314699612214,0.741857218966515,0.4386526557408075,0.24132494344314007,0.16396284654623797,0.4163708798137768,0.2080441776701116,0.3026119067233073,0.15467117456399274,0.618300764130211,0.621287917097577,0.43264569645950235,0.6022929479878595,0.4124199232620776,0.4473515729964993,0.6561923254312492,0.41624086475449523,0.7050218116235438,0.5948808732994664,0.4309320971070043,0.743002997759512,0.61316098566634,0.5832172472782742,0.4632515914789451,0.40966037049244386,0.6676808823191577,0.6591320419872897,0.298217409171559,0.20359530338705584,0.7485969018081382,0.4690231244101086,0.41454154494627365,0.7494396459601073,0.6031779554798974,0.6825140709159409,0.5759925640457575,0.6892539787297095,0.9471645078427152,0.8192274399443875,0.9122228416334298,0.9557323553525106,0.7626105398124128,0.9500933677540855,0.9726400294447286,0.9177903151738372],[0.7322313900719555,0.829563914178593,0.8399056852180999,0.9369322555777374,0.9316514038287305,0.9266313662270299,0.8486910730067978,0.8718805088875744,0.7203330212828921,0.44037740272015663,0.5375726910657389,0.536904149604254,0.5144895729010017,0.7615624844137066,0.8428031073890264,0.8494934912161798,0.4120752983858998,0.305717794128627,0.3622202599798928,0.36325744576678026,0.2658635688129117,0.3888167540901287,0.36877282230328146,0.35890890773472395,0.38124176583358793,0.2221660880574288,0.3805198685468891,0.18826053701989287,0.2592343577532812,0.19738912013047358,0.2215195390232142,0.24373948601209916,0,0.32357378850839863,0.4797575947579059,0.02081619985959262,0.3470466538414659,0.36825311790252757,0.39413165919891113,0.28512058467727397,0.46978765930220306,0.4369211470218803,0.3683571169654322,0.37299522308417193,0.23312706720418003,0.24243802777031126,0.6856218298081714,0.5850124459903364,0.4265970482407314,0.2043963529388806,0.5742637590991284,0.40747478846329416,0.19458102698599242,0.20531429732372586,0.718279442272619,0.7238292289824837,0.5200822956600903,0.725193690392297,0.5807515087096157,0.526607554380056,0.6285051895561783,0.477413375206967,0.6718541133743566,0.7024376355649874,0.5935877141713762,0.6987054008214912,0.7636630883027181,0.49152789970954647,0.5449225598705668,0.5732909980907225,0.8050150028321192,0.5954277218569303,0.20963110626022674,0.42119626290959983,0.7860929440713499,0.5111118066848203,0.5626448696733002,0.7896229362968978,0.5170030393134407,0.6579645977360532,0.4860638402105944,0.72932145141591,0.8001763926525471,0.8211700633228002,0.7637578949239479,0.804182440809137,0.7868295402866065,0.8090559249453477,0.8238474545175224,0.772448094880993],[0.7895713492858867,0.7942948356130876,0.8200558230257767,0.8424700195412546,0.8523664039763562,0.854912027828384,0.7847416900204778,0.7718825290484548,0.6288504079907912,0.3165070646987735,0.4762440752171503,0.4550284626428846,0.49936625803869017,0.8139948735186305,0.8195506085792633,0.780523208297219,0.6045553948270266,0.5348977628186304,0.5586955876629687,0.6105009046290916,0.4309373317789238,0.5786269092999893,0.5556177240282302,0.506174916263466,0.541479101830913,0.47982816891775476,0.5503678244510137,0.1336658654916501,0.520672551429384,0.43352078866711874,0.1694635434057444,0.16193714651708635,0.32357378850839863,0,0.25532466789634356,0.30083781183922237,0.020528496521780848,0.059237692610184384,0.07814958538502498,0.38193280547054687,0.3793750673981196,0.3420994468981209,0.43416037046397254,0.43287505708341356,0.2455281456926226,0.3596237132980156,0.6156848122730862,0.2786301187117392,0.10009238329995589,0.1291023695905626,0.2600559544870866,0.08746646218583262,0.2705869631591293,0.12362435295278248,0.45336406639941357,0.4564050849832683,0.26969714633669356,0.43902281090564027,0.26105570110089993,0.2854830087939839,0.5207246008833052,0.26015955266942375,0.5699109948329397,0.4301304470093395,0.27699616416436046,0.6113297196748507,0.4566176475859869,0.4852177880875416,0.30059848746235523,0.2558166088060426,0.5076939102713027,0.5404560212291402,0.2550607423846772,0.11651909201446724,0.589595486833659,0.3161798683080181,0.25463789923548175,0.5898752430407465,0.5003600344956869,0.5446530232023877,0.47756938203060306,0.5305346425485997,0.8657104663481795,0.6682936322057755,0.8329157896523518,0.8772438199312769,0.6064666536083962,0.8644622884605015,0.8916977162166094,0.8361162295374707],[0.6248472291713792,0.5736850261355848,0.6058588374190629,0.5954884519650215,0.6101527646083211,0.6153910190254697,0.5511431083208858,0.5250784410300132,0.3920039274695205,0.1314203836549818,0.2788639188544656,0.24782980906339483,0.33078356183081425,0.6436504333413822,0.6035975072563776,0.5449723059891356,0.572821753386457,0.549907884007076,0.5406607913670659,0.625389689528451,0.43008848984355047,0.5503678244510137,0.5304665183149787,0.4634074648480769,0.49858793416020647,0.5331423704645744,0.5128056565756302,0.3181097522603522,0.5668697889646629,0.48475695668657065,0.4145905037338269,0.412928133359587,0.4797575947579059,0.25532466789634356,0,0.4565929360552304,0.2497962538905163,0.2889969609899873,0.2837455328331381,0.3535786378151388,0.190996206339254,0.16954254695049487,0.3540688089835274,0.3485489017549045,0.26818529587374923,0.3607370043357456,0.3906675342161846,0.1811574349063751,0.24366582814806725,0.28861553668960227,0.19920582681415117,0.27672020370474226,0.31577396341494834,0.2928532615407162,0.2371616821497067,0.2433894150543299,0.04814091368674359,0.25668401015813797,0.2246940303716673,0.045684010032162506,0.2855538646194221,0.007642994228676067,0.3327851120593264,0.22490342660406734,0.2185354657820244,0.3777498596140352,0.32131237992114553,0.32753525900619174,0.06371119500169552,0.21106838384119112,0.34336090879462294,0.3342296497653697,0.2936966059373822,0.31691203947487673,0.3326633254628482,0.06316425505572233,0.17391045066271676,0.3335216560564762,0.3303477407924332,0.304346201625105,0.32052698213940056,0.27333787360325595,0.6996467837110294,0.41128102495912355,0.6721098779517172,0.7153129866041976,0.3481674738876052,0.6918087248208666,0.7251406584551922,0.671301869805877],[0.7247942961144436,0.8163492278289879,0.8277038168139602,0.920709027615431,0.9162496481691047,0.9116418788890543,0.8338527776027548,0.8551423518126541,0.7033804761395032,0.41973723669254615,0.5208633741450283,0.5191304079258985,0.5001794938491348,0.7539334400548436,0.8303983770136375,0.8343710649674146,0.41385006900824295,0.3102826545151755,0.3636789324410616,0.37120273019673755,0.2612190921782564,0.38994561070194694,0.3692307824546757,0.3549011940129649,0.3790184716534169,0.22916910946405325,0.3793037748574972,0.16506116957827038,0.2677158309054622,0.19992347859330784,0.20584790180803247,0.22790358121982066,0.02081619985959262,0.30083781183922237,0.4565929360552304,0,0.3243449376203093,0.34660511655962517,0.37234219724451617,0.2741504466881134,0.45088855880344614,0.4174095528443725,0.3572102893025747,0.3614918507401779,0.21340065806547168,0.23160225071918394,0.6696187791778185,0.5612174554678457,0.40392330161557766,0.18063867489992388,0.5505812383337829,0.3854982132651499,0.1769528714273115,0.1816747378106143,0.694862075245298,0.7003705639061469,0.4966049947961365,0.7014580644327976,0.5572216209191766,0.5032982567282573,0.6102009234095498,0.45437833030464886,0.6541007729246588,0.6788760030041078,0.5699506422741021,0.68184770934215,0.7398417379131202,0.47747956610621184,0.5216043215626792,0.5496901002036431,0.7812042090301119,0.5795985591010355,0.19067981769505643,0.40019409435309555,0.7647467402398824,0.48877805442777844,0.5388737650007496,0.7681682589965915,0.5026293235475091,0.6395803822639441,0.47180604887548355,0.7077404253512583,0.7937447774664761,0.8016880550798937,0.7574066023435388,0.7983501298757296,0.766094727796038,0.8019053877463969,0.8177121016063886,0.7657254488272941],[0.8003941342439185,0.7987157152350185,0.8254475424270747,0.8420292823491982,0.8530831257629476,0.8562084494785938,0.7870509602721439,0.7714016200023176,0.6301791767524371,0.3205901648945238,0.4819546700890446,0.45944084243649214,0.5081696143807545,0.8243610273590816,0.824698658224182,0.7824690108115361,0.6238623703706507,0.5560526517663449,0.5784706696188957,0.6319346177828751,0.45072337851214717,0.5979882214272203,0.5750187825656907,0.5243036060599995,0.5598429250433499,0.5021484022570992,0.569081734499642,0.15720070645565942,0.5429123546084642,0.45556870994453497,0.18688988582213295,0.1774066981551148,0.3470466538414659,0.020528496521780848,0.2497962538905163,0.3243449376203093,0,0.04488446544139308,0.05846662601578388,0.3996528898511013,0.3846846470355063,0.3480639643939752,0.4492290181212084,0.4476339404289696,0.26362387020058314,0.3787508062574449,0.6188854626406193,0.2595113933099968,0.07656684969512313,0.15192456395097073,0.2395708430263345,0.06585553246426447,0.29070337397134444,0.14673559728854416,0.43894058099419236,0.4416410304752679,0.25994367706450683,0.42191855172711074,0.239420971858412,0.2766714765352563,0.5219030041883523,0.2554565295914769,0.5709805145104407,0.4149384897172187,0.2559394480097187,0.6131683587865041,0.4365078776321342,0.4948651553249419,0.29097393555425993,0.2346803305319471,0.4887780544277785,0.5457055373842566,0.27445352474442114,0.09851610828491665,0.5817157432602306,0.31255831841913423,0.23542458932070812,0.5816652382006461,0.5090398514142221,0.5450427719276865,0.4871911829123258,0.5229448981959112,0.8766397557866995,0.6639687222114674,0.8442414000808642,0.888592334954477,0.6000446140635793,0.8747500229497686,0.9026494973678285,0.8470786200588502],[0.84828557773304,0.8449837407486969,0.8721764489539422,0.8848443768638823,0.8968722564797827,0.9004496473646367,0.8320566405114193,0.8142311700750445,0.6745951710586187,0.3670580971515875,0.528948497571848,0.505889321151935,0.555967318807317,0.8722595018640911,0.8713169075667356,0.8272251451629173,0.6662975986231459,0.5948010827573755,0.6201407066924889,0.6698720175359312,0.4924273685638857,0.6403434920442683,0.617316497593206,0.5683625987675524,0.6036124858817674,0.537190167964168,0.612393698852978,0.1848091090524101,0.5782245069572209,0.49172537218976814,0.18232546422831414,0.16795553990818768,0.36825311790252757,0.059237692610184384,0.2889969609899873,0.34660511655962517,0.04488446544139308,0,0.023350467983400788,0.4441778928265452,0.43159639598571364,0.39525115486711726,0.49586334472454296,0.49443609436364616,0.3077565235400267,0.42153348394671003,0.6645576578301411,0.27197824948102345,0.07085267318359366,0.18639882046158626,0.24734032119946134,0.03815115956350636,0.33195880259706406,0.17970865460202756,0.46217366509569036,0.46408879925236973,0.2934438545228864,0.4386166518853938,0.24181717963438373,0.31138280910759614,0.5663234395883647,0.2955131427328348,0.6152624405804406,0.43656989280937286,0.2608491677544902,0.6579645977360532,0.4432727988340598,0.5427458906971663,0.3243241196387124,0.2396831856671312,0.4995290104816525,0.5924748771716474,0.31691203947487673,0.05520247316816248,0.6162022835263488,0.35334923558143844,0.2480741951561651,0.6156627826189266,0.5568200630871103,0.588832192170735,0.5350708762957861,0.5580157765156273,0.9245275834971401,0.7029655240061267,0.8921013096711313,0.936451206634653,0.6365294932769072,0.9226472691439588,0.9505365661921754,0.8949643898521276],[0.8573233938537238,0.8470786200588502,0.8752777992668886,0.8816995354559332,0.8949390928947917,0.8991286733030053,0.831917897510405,0.8111651257569675,0.673739783142551,0.370339763560787,0.5330703402736855,0.508760293746548,0.5632228512905164,0.8807747203135229,0.8741571898520683,0.8267078696098508,0.6851631624385751,0.6160261716631369,0.639576847240824,0.6915307792288782,0.5118138424492924,0.6592692530740828,0.6362843667961205,0.5857845504721083,0.621317025151822,0.5600567819662136,0.6305198974631773,0.20929969110006771,0.6010043752400185,0.5141251164638071,0.20775338170989824,0.192674973388831,0.39413165919891113,0.07814958538502498,0.2837455328331381,0.37234219724451617,0.05846662601578388,0.023350467983400788,0,0.46112260130414084,0.43570088260108986,0.400199728077149,0.5098598939918754,0.5080985092087272,0.32510042846063925,0.44008528456117985,0.6656898137197523,0.25178318411407496,0.04962905891120436,0.20897847344055184,0.22568943808643915,0.01235589175609759,0.3515855547211235,0.20275802075484237,0.44563338433983224,0.44716491163226174,0.2837455328331381,0.41925874011624237,0.21858672554504324,0.30238884896845925,0.5656407633650342,0.29098166222649674,0.6143027682587894,0.4193501802220562,0.2382092338271531,0.6576861670501086,0.4205049249000246,0.5509135077055713,0.31428120294993195,0.21721915368528216,0.4778670726983659,0.5959323537314862,0.3356814402899062,0.03770731357503597,0.6058924136474478,0.34913639573620525,0.2281493798696746,0.6050076211720473,0.563944499723866,0.5872526149478184,0.543228496282157,0.5482497451350499,0.9336300587244789,0.696107625015824,0.9016657508824593,0.9460138903481327,0.6276773350468292,0.9310387505039253,0.9596479590500793,0.9041231168007656],[0.4519083419612064,0.5429914071876885,0.552027821009035,0.6608622508975018,0.6515272571029732,0.6448296469911189,0.5666305763578054,0.5994491713402492,0.45144872304376815,0.2443555095963185,0.27201954896349373,0.28216478874407913,0.233280930338408,0.48042058510786334,0.5550929212649318,0.5685692939275124,0.22683871060545288,0.19430492711198347,0.18763006985665923,0.26888797350141863,0.07585001647384243,0.20196165080778883,0.18000677527492923,0.12203589126113044,0.15810556396903183,0.19694656499380017,0.16883020749801383,0.29209219097427286,0.22195414397881733,0.1567463558508212,0.4108695957689954,0.42688776374960086,0.28512058467727397,0.38193280547054687,0.3535786378151388,0.2741504466881134,0.3996528898511013,0.4441778928265452,0.46112260130414084,0,0.2364133355879575,0.21911912587273458,0.08022218971925453,0.08502333418620295,0.13346628365947702,0.03966828937958208,0.4107378520221846,0.5240278346657311,0.4613965958615471,0.2707197712810971,0.5306623520479066,0.4669976171044978,0.12127060500355893,0.2799898922385802,0.5765337177777712,0.5842547987351038,0.4046539054718394,0.6095448976434014,0.5496078953317375,0.3997431411043789,0.37498358980601165,0.34551837923884254,0.41102324382484834,0.5717754202992994,0.5520400987564587,0.4295059141524699,0.6778892243592974,0.20954562923566689,0.4157583731854012,0.5374928459657634,0.6972276987458704,0.3211162088904587,0.12853375242995949,0.5009688816974204,0.5721072942165668,0.34644914667808796,0.5091285679685473,0.5777788045499684,0.23605253702606555,0.40416326267876224,0.20521613969437888,0.5232169204191038,0.5235276308797099,0.5754626846751492,0.48769602196329753,0.5302152349836786,0.5611006902217005,0.5294606734829405,0.5483568723142501,0.4947282611591811],[0.4325622626523156,0.4121026600187948,0.4378032111699911,0.47815041638927486,0.48112958927822563,0.4808479901565644,0.40716477639045756,0.4094236077210645,0.25849705692722114,0.0631985711628005,0.0943823730614562,0.07398451975002139,0.13682043963083787,0.452641770852333,0.437189564069439,0.4043696276664988,0.41688512769967423,0.4246415008119361,0.3955761323234798,0.4924090283802131,0.3131983165188319,0.3983023458157085,0.38216877395960075,0.3123567021251166,0.34320347741229534,0.43632177957732643,0.3590218655980533,0.3731462248878098,0.4605006206278992,0.39444612165787163,0.4957540515717452,0.5025080127352843,0.46978765930220306,0.3793750673981196,0.190996206339254,0.45088855880344614,0.3846846470355063,0.43159639598571364,0.43570088260108986,0.2364133355879575,0,0.03541125888594074,0.1975817232245456,0.19032766752676994,0.23489048541918411,0.26427055563353585,0.23647973919549012,0.3731945326644092,0.4089551879543245,0.3408135375076779,0.39307208963127094,0.43356241597230444,0.27274540745262055,0.34909123869303194,0.3595610674416056,0.36801442166919895,0.23446042429950834,0.4061056468122033,0.418704296675827,0.22013940259392936,0.15745571334355135,0.18034158164328543,0.20391389980819713,0.3618655755858537,0.4120534077809177,0.23844454182818772,0.48857477714406655,0.13427941641714444,0.2297456237991557,0.40507716771212504,0.49251905930042256,0.15809146465445956,0.25724321594803523,0.4745584880501434,0.3329271406205997,0.14595996139559805,0.3676468965430102,0.3384600908204536,0.13646259730435287,0.18639882046158626,0.12758055552420372,0.2839435030920174,0.5080273941432901,0.34901381314235824,0.4794328206514373,0.5230096781511431,0.32404641993007366,0.5016805255666374,0.5337521208446749,0.47929154630498416],[0.4618219456214685,0.4499066043341607,0.474953115510512,0.5160017394397814,0.5194087645303093,0.5192348090388299,0.44558781347068244,0.44702865042407325,0.29648554757421947,0.0351145315736269,0.13113282239168123,0.11240033831756194,0.16445187941761494,0.48304013668088014,0.47452043443725056,0.44278899097867286,0.4152970470683217,0.412862592760458,0.38980684956516054,0.48345590133890276,0.29759085669427593,0.395091419654421,0.3774275674817194,0.30792459668523575,0.3408135375076779,0.4173771331572052,0.35614299210760847,0.33507728518803076,0.4440508834895945,0.37355664345697354,0.45740278256294853,0.4640887992523697,0.4369211470218803,0.3420994468981209,0.16954254695049487,0.4174095528443725,0.3480639643939752,0.39525115486711726,0.400199728077149,0.21911912587273458,0.03541125888594074,0,0.19349742009314264,0.18687792372714335,0.2009952228619751,0.24233620527093824,0.27489526167311823,0.35367417853475663,0.37533198061686884,0.30268622314014315,0.3710873781886646,0.398619198661333,0.24113893603460312,0.3108983477427356,0.36081817862621585,0.3689743942301425,0.21678552111979135,0.4019704506748191,0.3957983327413629,0.20486675942698493,0.1939707901099194,0.1591034811386446,0.2412226568989419,0.35996181409107975,0.3908059920940458,0.2766064937672945,0.4802654986775721,0.15745571334355135,0.21686818373050498,0.38226901680500813,0.48939660921655304,0.19552147116142934,0.2243645895427949,0.43945426722224756,0.35601014775563955,0.13594045433799354,0.3460524095620057,0.3609180605900406,0.16461457333462592,0.22243829481923155,0.1501106255647776,0.3039468494208995,0.5377659514338194,0.38127723399225594,0.5080985092087272,0.552027821009035,0.35070683856536167,0.5325955462912895,0.5636399158185545,0.5087203444698831],[0.373116029376793,0.46057412637282413,0.46892686880604767,0.5832947398893564,0.5720954448743799,0.5646212123579436,0.4864816772737408,0.5238898948435886,0.37906009163957316,0.22722381535321898,0.20674866549739906,0.2240046543100354,0.15673213657182478,0.4010270310094304,0.47207866344093835,0.4889858647778133,0.218822367896762,0.22837528401977591,0.1949829824913117,0.29265357411101695,0.13128513740680786,0.19871096022631743,0.18174851999245406,0.11194676323512272,0.14430395833331,0.2573392084826386,0.15966299215178983,0.36113645687321944,0.2731323002454897,0.22545093576267497,0.48396927729580563,0.4985335874208555,0.3683571169654322,0.43416037046397254,0.3540688089835274,0.3572102893025747,0.4492290181212084,0.49586334472454296,0.5098598939918754,0.08022218971925453,0.1975817232245456,0.19349742009314264,0,0.004670769379483205,0.19401691166126717,0.1229048090269326,0.33548017506863514,0.5346570002546829,0.5025709182713635,0.3362175637648211,0.546330288882178,0.5137076520353169,0.19585300272570463,0.3457268786112549,0.5569620608831605,0.565197183653921,0.4045480212294476,0.5981545031427283,0.5680643489855529,0.39572427969351653,0.3130258603848306,0.3445981893520846,0.3438458724092777,0.5564710011460825,0.5672722369040268,0.35726073386833096,0.6742866850852414,0.13299945382524517,0.4095998162036429,0.5551621095468888,0.685717484488644,0.24773923525215163,0.19738912013047358,0.5504663333914238,0.5236613525435981,0.3316331379436219,0.5229017071261449,0.5301129841469028,0.15966299215178983,0.3410975099991919,0.1300446651003836,0.47962112211977137,0.44628605888228906,0.512757212226943,0.4110012975936858,0.45430382869704505,0.5077561771224121,0.45066830505057703,0.4715572112697317,0.41710146480704663],[0.37108737818866455,0.45513755469652667,0.4640061188105769,0.5766983164717435,0.5658005271217824,0.5584852578777105,0.4803218995007247,0.5170379843704193,0.3718880378456535,0.2209522775397578,0.19914965298051326,0.2163199634515505,0.14979877686308807,0.39878883847558716,0.46705560986240147,0.4827082040603524,0.22541116116474824,0.23605253702606555,0.20224958525730666,0.30017172296633576,0.13851586016900191,0.20558671505958168,0.1888770954178485,0.11905763947351904,0.15098339249717396,0.2647121245979662,0.16646092583887676,0.36208962686965657,0.28073539041602286,0.2324141421919891,0.48542711317658377,0.49973237694387346,0.37299522308417193,0.43287505708341356,0.3485489017549045,0.3614918507401779,0.4476339404289696,0.49443609436364616,0.5080985092087272,0.08502333418620295,0.19032766752676994,0.18687792372714335,0.004670769379483205,0,0.1944890365806423,0.12763272740531334,0.32854392364350543,0.5295843754305914,0.5000530768450969,0.33671941114717985,0.541608415873621,0.5117300017545294,0.1981358414679002,0.346241078487321,0.5501337954075234,0.5583881560146321,0.3989075437434803,0.5916999997486941,0.563531668957976,0.3898531087230402,0.3053938822059384,0.3390051421550789,0.33637154251988677,0.5498421469934235,0.5625002819684662,0.3500704927875891,0.6682191841814588,0.12602319469377302,0.4035826487871384,0.5505812383337829,0.6792190405662806,0.24058006160483417,0.19884604415656099,0.5487440047365473,0.5160017394397816,0.32523886184012457,0.5180634498983979,0.5224609554351798,0.15271425302249608,0.3334946554138578,0.1229048090269326,0.47203562943657335,0.4446399025019405,0.5051746311840628,0.4095227342535859,0.45298562658534486,0.5000711383619894,0.44858562705715993,0.4700086150351833,0.4153730651844611],[0.5665827217810342,0.6194331186738657,0.6361777607444425,0.7102162188754562,0.7087209248117848,0.705778562205702,0.6290121642219875,0.6431830667940753,0.49119707144438063,0.20505244074135598,0.3106087603187896,0.3052833799026374,0.30238884896845925,0.593500134525038,0.6377076312437321,0.6283181174199757,0.3582618584716365,0.301494984021221,0.31442435457280116,0.3789471125547338,0.1877372772009244,0.3325685719980808,0.309760178019189,0.2577054003377818,0.29320622492431647,0.2674471993390022,0.3026119067233073,0.1652097715241352,0.3043905420674441,0.2182687236020285,0.2902079871609917,0.3033542596743868,0.23312706720418003,0.2455281456926226,0.26818529587374923,0.21340065806547168,0.26362387020058314,0.3077565235400267,0.32510042846063925,0.13346628365947702,0.23489048541918411,0.2009952228619751,0.19401691166126717,0.1944890365806423,0,0.11375049252139902,0.4609463765007622,0.41597529207083056,0.32810515479603236,0.13922031354608524,0.4168905374857525,0.3314633953555059,0.04464675271631642,0.14873968535435583,0.5069817491951846,0.5136329122920864,0.3158594600148439,0.5269119902577984,0.4325570475087219,0.31688363691867094,0.39489166046414004,0.26301830959966815,0.43986478721890265,0.49604544679033363,0.4382204155783781,0.4700422296862405,0.5830816105545851,0.2820373130080386,0.3348151491084366,0.4214906770763995,0.6124195365604039,0.3724208623400211,0.023003547328469102,0.36473671265287244,0.5520892070305686,0.2851757655749721,0.3979795777702597,0.556016082093163,0.3043905420674441,0.424094044967144,0.275254676997181,0.4963730631715101,0.6410457420355055,0.5852750752124467,0.6063100963802669,0.650012369826928,0.55127016776481,0.6437312218745762,0.6666063727300142,0.6116180625675368],[0.49289023341532123,0.585336853286227,0.5946528720608606,0.701122635146525,0.6925896472684205,0.6862252213990748,0.6080374547696523,0.6389119170433404,0.4898761465621062,0.26294999098975974,0.3088000306817689,0.31629371377621407,0.274019283214487,0.521608651510761,0.5976819915423124,0.609741408404637,0.24211390027971483,0.18892444095235011,0.19767229601445108,0.2660915782098384,0.0714346740932302,0.21627853271516867,0.19335865690783355,0.14620373216922608,0.1801060409789174,0.17339613328486245,0.188022869321221,0.2598572771837249,0.20400170218949223,0.12825717266447775,0.37498358980601165,0.39188314699612214,0.24243802777031126,0.3596237132980156,0.3607370043357456,0.23160225071918394,0.3787508062574449,0.42153348394671003,0.44008528456117985,0.03966828937958208,0.26427055563353585,0.24233620527093824,0.1229048090269326,0.12763272740531334,0.11375049252139902,0,0.4503928373996165,0.5235664567965039,0.4447870361971212,0.24131564643587144,0.5274818013913468,0.44710435618780486,0.08893576649119471,0.2502630589026961,0.5908093621043272,0.598226292394067,0.41119328769046576,0.6195827274902724,0.5447732944093612,0.40832059451189406,0.409638351779191,0.3535531559663988,0.44752807338017264,0.5840110615894711,0.5489004280015305,0.46793911458535475,0.6836000781993854,0.2504244449296989,0.4251511206795134,0.5331847366450916,0.7068001758189146,0.36037462119686126,0.10162321391615776,0.4791549417570539,0.5998637822644984,0.36121130545265473,0.5071598826627866,0.6051570435288904,0.2767283240744756,0.4390690585093022,0.24574739957516842,0.5490732653105234,0.5638122662903302,0.6094855612505039,0.5278071331285095,0.569950642274102,0.5910885467118174,0.5703667748887701,0.5884328924775526,0.5352017300077124],[0.2947817553643143,0.18000677527492923,0.21335866834620515,0.2483996737507291,0.24476839702656747,0.24255830902034398,0.16771621650972188,0.18572603273932267,0.048494933597264624,0.2963034623001764,0.14741666076122514,0.15948136238871413,0.17573703389386516,0.3009798215418821,0.21049463384984177,0.1654256857789183,0.4931924662996403,0.5507125290709922,0.49624568234689004,0.597931523962486,0.46943199194229285,0.48576184685471885,0.47974347868787137,0.42082661773395286,0.43588724392163863,0.5941775898981686,0.4512087372446185,0.61090805183893,0.6051570435288904,0.563944499723866,0.7346711788114967,0.741857218966515,0.6856218298081714,0.6156848122730862,0.3906675342161846,0.6696187791778185,0.6188854626406193,0.6645576578301411,0.6656898137197523,0.4107378520221846,0.23647973919549012,0.27489526167311823,0.33548017506863514,0.32854392364350543,0.4609463765007622,0.4503928373996165,0,0.5455813298516247,0.6326783189676208,0.5788807093090421,0.573763799442759,0.6616009253329214,0.49018483233214694,0.5874065307178254,0.4403978950137258,0.4488270060668967,0.4161541656442777,0.5065851788253986,0.6014705319658306,0.3966120105868167,0.10485147973444886,0.3811530811105934,0.06863599979399083,0.4580929895997318,0.5885135420183952,0.03328326371168991,0.6005679672125711,0.1995088962775881,0.39644144632422057,0.5882677186182507,0.5776301610540181,0.08731570260010463,0.4793763158777384,0.7027338167276284,0.2846313774855281,0.32615796296582455,0.5486204813535434,0.2933518914741884,0.17281572799143258,0.09759461740970418,0.20298971541276864,0.27603724905087446,0.3559974933488981,0.20869969058323815,0.34041690441728584,0.3759438909859139,0.24864350644591618,0.33938350812049484,0.37789897658755656,0.3333326060404842],[0.8019590062617611,0.7252155259497772,0.7613990602783016,0.7133908867152534,0.7361170493784794,0.7452801852461379,0.6907977774905231,0.6460347176032987,0.5349442133658757,0.31556725190650126,0.454835008301542,0.4217421056606802,0.5121182017927222,0.8189842892183323,0.757923224170974,0.6825140709159409,0.7496811189610787,0.7154932162409913,0.7142401589455928,0.7925064699050782,0.596569176393334,0.7262254848323868,0.7053586013286953,0.6404105741344114,0.6762826518077413,0.6862911338182404,0.6897919126205745,0.39745239774091323,0.7233415235493691,0.6370833462475336,0.449299333495351,0.4386526557408075,0.5850124459903364,0.2786301187117392,0.1811574349063751,0.5612174554678457,0.2595113933099968,0.27197824948102345,0.25178318411407496,0.5240278346657311,0.3731945326644092,0.35367417853475663,0.5346570002546829,0.5295843754305914,0.41597529207083056,0.5235664567965039,0.5455813298516247,0,0.19919459329583503,0.3776663285950168,0.03115570162506414,0.23762467708037366,0.4604565115851549,0.3773797972755444,0.20059397986370436,0.20020312297509127,0.1359404543379936,0.16488537953109764,0.05700837155412428,0.15215896486706013,0.4377465233250337,0.1915574047422915,0.4791784970263076,0.17176614150610764,0.04014461383734379,0.5252547723028601,0.17649789737925417,0.5104176596744526,0.1477334373756487,0.04642471205939459,0.22625488674023483,0.5039707878761317,0.4385652127139559,0.2639303901649655,0.3936909929834258,0.2284636212828788,0.021100470979918236,0.3903846980719464,0.511447490467456,0.4489375950291299,0.5035808285558127,0.34336090879462294,0.8755079552831866,0.5055544352830235,0.8496400308859214,0.8921063851594787,0.42515112067951333,0.8658124393293792,0.9005803815899307,0.8478264947516951],[0.8378658764981579,0.8151506863452234,0.8449489161900515,0.8419217505985868,0.8568162998370416,0.8618738609270158,0.7965225367614869,0.771601057546958,0.6376331746556649,0.3428095854074724,0.5056571570549306,0.47931980448458417,0.5413956571153448,0.8602307722932555,0.8433964308986847,0.7907541405623392,0.6892375717397271,0.6274287667131563,0.6454604865147762,0.7040490333594751,0.5182595855037654,0.6636178371416037,0.6408517294328163,0.5864169214478772,0.6225092891427535,0.5773092743127098,0.6327962300663647,0.23665988481971326,0.6177557684114383,0.5299595711102728,0.25474367505337564,0.24132494344314007,0.4265970482407314,0.10009238329995589,0.24366582814806725,0.40392330161557766,0.07656684969512313,0.07085267318359366,0.04962905891120436,0.4613965958615471,0.4089551879543245,0.37533198061686884,0.5025709182713635,0.5000530768450969,0.32810515479603236,0.4447870361971212,0.6326783189676208,0.19919459329583503,0,0.22956012264516826,0.173640620745945,0.03617223596557414,0.36029334780181776,0.22506283755525838,0.39360509193669774,0.39498299139171256,0.23785112540219866,0.36661588209652096,0.16810162831966,0.25716465025887164,0.5301641120164479,0.2518455831480112,0.5782245069572209,0