"trial_id","rt","stimulus","response","trial_type","trial_index","plugin_version","time_elapsed","participant_number","success","raw_payload","placements","dissimilarity_vector","n_words","trial_category","distance_matrix","value"
"consent_form","2090","
    <div style=""max-width:800px; margin:0 auto; text-align:left; font-size: 16px; padding: 10px 0;"">
      <h1>Informed Consent Form</h1>
      <p>You are being invited to participate in a research study titled <strong>""Reproducibility of Psychological Science and Instruction.""</strong> This study is being done by Dr. Bria Long from UC San Diego and associated graduate students in the Experimental Methods course. You were selected to participate in this study because you are an adult in the U.S. and have been a represented population in previous psychology studies.</p>
      
      <p>The purpose of this study is to better understand how well previously published studies in the psychological field replicate online and with different populations. Your participation in this research should last approximately <strong>5-30 minutes</strong>. If you agree to take part in this study, you may be asked to view a set of stimuli, including pictures, sounds, written text, or videos and then giving some responses via key-presses, verbally, or with paper-and-pencil. We may also observe your choices or preferences among an array of stimuli. These stimuli will be taken directly from or closely adapted from studies that already exist in the published psychological literature. Stimuli will include, e.g., pictures of objects and human faces, audio and video clips, short text passages, etc. None of the stimuli will be disturbing, threatening, or offensive. The online and in-person experiments described in this protocol will take no more than 30 minutes. An example game you might play would be to click on an image on the screen that matches a word you hear being said out loud. Your total expected time commitment for this study is between 5-30 minutes, and is specified in the study description.</p>
      
      <p>Your participation in this study is completely voluntary and you can withdraw at any time. Choosing not to participate or withdrawing will result in no penalty or loss of benefits to which you are entitled. You are free to skip any question that you choose.</p>
      
      <p>We will not be asking for any personally identifying information, and we will handle responses as confidentially as possible. Your SONA or Prolific IDs will never be tied to your responses on this survey. However, we cannot guarantee the confidentiality of information transmitted over the Internet. To minimize this risk, data containing anything that might be personally identifying (e.g. Prolific IDs or IP addresses) will be encrypted on transfer and storage and will only be accessible to qualified lab personnel. We will be keeping data collected as part of this experiment indefinitely. This anonymized data (containing neither Prolific IDs nor IP addresses) may be shared with the scientific community or with other participants to be used as stimuli in future studies.</p>
      
      <p>If you have questions about this project or if you have a research-related problem, you may contact the researcher(s), <strong>Dr. Bria Long, <a href=""mailto:brlong@ucsd.edu"">brlong@ucsd.edu</a></strong>. If you have any questions concerning your rights as a research subject, you may contact the UC San Diego Office of IRB Administration at <a href=""mailto:irb@ucsd.edu"">irb@ucsd.edu</a> or 858-246-4777.</p>
      
      <h3 style=""margin-top: 25px;"">Consent Statement</h3>
      <p style=""font-weight: bold;"">By participating in this research you are indicating that you are at least 18 years old, have read this consent form, and agree to participate in this research study. Please keep this consent form for your records.</p>
    </div>
  ","0","html-button-response","0","2.1.0","2095","tr4ko8k1lp_f72i4b","","","","","","","",""
"","242523","","{""participant_date"":""11/26/2025"",""participant_time"":""01:00 PM""}","survey-html-form","1","2.1.0","244626","tr4ko8k1lp_f72i4b","","","","","","","",""
"","527948","
    <div style=""display:flex; align-items:center; justify-content:center; height:100vh; font-family:sans-serif;"">
      <div style=""max-width:900px; margin:0 auto; text-align:center;"">
        <h1 style= ""font-size: 24px;"">Welcome! Thank you for participating in the study.</h1>
        <h2 style= ""font-size: 22px;"">The study will be in Madarin Chinese.</h2>
        <h2 style= ""font-size: 22px;"">Please use desktop computers or laptops for the study. Tablets and phones are not allowed.</h2>
        <p style=""font-size:16px; margin-top:30px;""><em>Press any key to continue.</em></p>
      </div>
    </div>
  ","j","html-keyboard-response","2","2.1.0","772592","tr4ko8k1lp_f72i4b","","","","","","","",""
"","15835","
    <div style=""display:flex; align-items:center; justify-content:center; height:100vh; font-family:sans-serif;"">
      <div style=""max-width:900px; margin:0 auto; text-align:center;"">
        <p style=""font-size:18px; line-height:1.6;"">
          In this task, you will be presented with <strong>90 words</strong> arranged <strong>outside a circle</strong>.<br>
          Your job is to <strong>drag these words into the circle</strong> and <strong>rearrange them</strong> based on their <strong>meaning similarity</strong>.<br><br>
          Words that are <strong>similar in meaning</strong> should be placed <strong>closer together</strong>.<br>
          Words that are <strong>different in meaning</strong> should be placed <strong>farther apart</strong>.<br><br>
          You can place the words <strong>anywhere inside the circle</strong>. There is no single correct answer — 
          we are interested in <strong>your personal judgment</strong> of how these words relate to each other.<br><br>
          <strong>You must move all words into the circle before you can finish.</strong><br>
          After the initial arrangement, you will arrange words from specific categories.
        </p>
        <p style=""font-size:16px; margin-top:30px;""><em>Press any key to continue.</em></p>
      </div>
    </div>
  ","k","html-keyboard-response","3","2.1.0","788429","tr4ko8k1lp_f72i4b","","","","","","","",""
"","2118","","","fullscreen","4","2.1.0","791553","tr4ko8k1lp_f72i4b","true","{""placements"":[{""word"":""骄傲"",""x"":274,""y"":385.8,""cx"":293,""cy"":403.2,""angle_rad"":2.391,""angle_deg"":137},{""word"":""冰箱"",""x"":208,""y"":230.8,""cx"":227,""cy"":248.2,""angle_rad"":-2.45,""angle_deg"":219.6},{""word"":""兔子"",""x"":443,""y"":92.8,""cx"":462,""cy"":110.2,""angle_rad"":-1.134,""angle_deg"":295},{""word"":""反感"",""x"":458,""y"":351.8,""cx"":477,""cy"":369.2,""angle_rad"":0.15,""angle_deg"":8.6},{""word"":""协议"",""x"":354,""y"":391.8,""cx"":373,""cy"":409.2,""angle_rad"":1.2,""angle_deg"":68.8},{""word"":""嘴唇"",""x"":312,""y"":190.8,""cx"":331,""cy"":208.2,""angle_rad"":-1.704,""angle_deg"":262.4},{""word"":""剪刀"",""x"":155,""y"":184.8,""cx"":174,""cy"":202.2,""angle_rad"":-2.443,""angle_deg"":220},{""word"":""长颈鹿"",""x"":409,""y"":110.8,""cx"":435,""cy"":128.2,""angle_rad"":-1.205,""angle_deg"":291},{""word"":""制度"",""x"":333,""y"":352.8,""cx"":352,""cy"":370.2,""angle_rad"":1.472,""angle_deg"":84.3},{""word"":""过失"",""x"":472,""y"":376.8,""cx"":491,""cy"":394.2,""angle_rad"":0.304,""angle_deg"":17.4},{""word"":""友情"",""x"":311,""y"":321.8,""cx"":330,""cy"":339.2,""angle_rad"":-2.646,""angle_deg"":208.4},{""word"":""方法"",""x"":361,""y"":414.8,""cx"":380,""cy"":432.2,""angle_rad"":1.221,""angle_deg"":69.9},{""word"":""蚂蚁"",""x"":311,""y"":84.8,""cx"":330,""cy"":102.2,""angle_rad"":-1.651,""angle_deg"":265.4},{""word"":""沮丧"",""x"":436,""y"":311.8,""cx"":455,""cy"":329.2,""angle_rad"":-0.196,""angle_deg"":348.8},{""word"":""沙发"",""x"":257,""y"":258.8,""cx"":276,""cy"":276.2,""angle_rad"":-2.358,""angle_deg"":224.9},{""word"":""暴力"",""x"":453,""y"":327.8,""cx"":472,""cy"":345.2,""angle_rad"":-0.039,""angle_deg"":357.7},{""word"":""筷子"",""x"":209,""y"":185.8,""cx"":228,""cy"":203.2,""angle_rad"":-2.264,""angle_deg"":230.3},{""word"":""概念"",""x"":274,""y"":434.8,""cx"":293,""cy"":452.2,""angle_rad"":2.079,""angle_deg"":119.1},{""word"":""麻雀"",""x"":351,""y"":41.8,""cx"":370,""cy"":59.2,""angle_rad"":-1.502,""angle_deg"":273.9},{""word"":""椅子"",""x"":261,""y"":180.8,""cx"":280,""cy"":198.2,""angle_rad"":-2.003,""angle_deg"":245.2},{""word"":""买卖"",""x"":393,""y"":355.3,""cx"":412,""cy"":372.7,""angle_rad"":0.351,""angle_deg"":20.1},{""word"":""魔力"",""x"":487,""y"":290.8,""cx"":506,""cy"":308.2,""angle_rad"":-0.262,""angle_deg"":345},{""word"":""结果"",""x"":259,""y"":400.8,""cx"":278,""cy"":418.2,""angle_rad"":2.383,""angle_deg"":136.5},{""word"":""敌意"",""x"":424,""y"":344.8,""cx"":443,""cy"":362.2,""angle_rad"":0.13,""angle_deg"":7.5},{""word"":""纠纷"",""x"":415,""y"":292.8,""cx"":434,""cy"":310.2,""angle_rad"":-0.442,""angle_deg"":334.7},{""word"":""关系"",""x"":278,""y"":290.8,""cx"":297,""cy"":308.2,""angle_rad"":-2.474,""angle_deg"":218.3},{""word"":""铅笔"",""x"":224,""y"":164.8,""cx"":243,""cy"":182.2,""angle_rad"":-2.138,""angle_deg"":237.5},{""word"":""愤怒"",""x"":485,""y"":335.8,""cx"":504,""cy"":353.2,""angle_rad"":0.021,""angle_deg"":1.2},{""word"":""团队"",""x"":238,""y"":381.8,""cx"":257,""cy"":399.2,""angle_rad"":2.655,""angle_deg"":152.1},{""word"":""洗衣机"",""x"":144,""y"":224.8,""cx"":170,""cy"":242.2,""angle_rad"":-2.602,""angle_deg"":210.9},{""word"":""大腿"",""x"":381,""y"":204.8,""cx"":400,""cy"":222.2,""angle_rad"":-1.198,""angle_deg"":291.4},{""word"":""慈善"",""x"":231,""y"":360.8,""cx"":250,""cy"":378.2,""angle_rad"":2.867,""angle_deg"":164.2},{""word"":""手指"",""x"":353,""y"":160.8,""cx"":372,""cy"":178.2,""angle_rad"":-1.443,""angle_deg"":277.3},{""word"":""性质"",""x"":324,""y"":391.8,""cx"":343,""cy"":409.2,""angle_rad"":1.688,""angle_deg"":96.7},{""word"":""猫"",""x"":354,""y"":66.8,""cx"":366,""cy"":84.2,""angle_rad"":-1.511,""angle_deg"":273.4},{""word"":""眼睛"",""x"":380,""y"":173.8,""cx"":399,""cy"":191.2,""angle_rad"":-1.271,""angle_deg"":287.2},{""word"":""床"",""x"":271,""y"":281.8,""cx"":283,""cy"":299.2,""angle_rad"":-2.493,""angle_deg"":217.2},{""word"":""鼠标"",""x"":421,""y"":72.8,""cx"":440,""cy"":90.2,""angle_rad"":-1.237,""angle_deg"":289.1},{""word"":""微波炉"",""x"":196,""y"":208.8,""cx"":222,""cy"":226.2,""angle_rad"":-2.373,""angle_deg"":224},{""word"":""原因"",""x"":241,""y"":307.8,""cx"":260,""cy"":325.2,""angle_rad"":-2.873,""angle_deg"":195.4},{""word"":""锤子"",""x"":407,""y"":373.8,""cx"":426,""cy"":391.2,""angle_rad"":0.497,""angle_deg"":28.5},{""word"":""勺子"",""x"":184,""y"":172.8,""cx"":203,""cy"":190.2,""angle_rad"":-2.314,""angle_deg"":227.4},{""word"":""缘分"",""x"":302,""y"":303.8,""cx"":321,""cy"":321.2,""angle_rad"":-2.36,""angle_deg"":224.8},{""word"":""胳膊"",""x"":413,""y"":160.8,""cx"":432,""cy"":178.2,""angle_rad"":-1.125,""angle_deg"":295.5},{""word"":""老鼠"",""x"":385,""y"":70.8,""cx"":404,""cy"":88.2,""angle_rad"":-1.367,""angle_deg"":281.7},{""word"":""兴奋"",""x"":352,""y"":308.8,""cx"":371,""cy"":326.2,""angle_rad"":-0.848,""angle_deg"":311.4},{""word"":""耳朵"",""x"":346,""y"":188.8,""cx"":365,""cy"":206.2,""angle_rad"":-1.467,""angle_deg"":276},{""word"":""社会"",""x"":268,""y"":343.8,""cx"":287,""cy"":361.2,""angle_rad"":2.966,""angle_deg"":169.9},{""word"":""牙刷"",""x"":277,""y"":192.8,""cx"":296,""cy"":210.2,""angle_rad"":-1.939,""angle_deg"":248.9},{""word"":""过程"",""x"":290,""y"":418.8,""cx"":309,""cy"":436.2,""angle_rad"":2.015,""angle_deg"":115.4},{""word"":""光彩"",""x"":371,""y"":260.8,""cx"":390,""cy"":278.2,""angle_rad"":-1.062,""angle_deg"":299.1},{""word"":""空调"",""x"":252,""y"":221.8,""cx"":271,""cy"":239.2,""angle_rad"":-2.19,""angle_deg"":234.5},{""word"":""乌龟"",""x"":314,""y"":47.8,""cx"":333,""cy"":65.2,""angle_rad"":-1.63,""angle_deg"":266.6},{""word"":""地位"",""x"":285,""y"":365.8,""cx"":304,""cy"":383.2,""angle_rad"":2.516,""angle_deg"":144.2},{""word"":""创伤"",""x"":410,""y"":320.8,""cx"":429,""cy"":338.2,""angle_rad"":-0.148,""angle_deg"":351.5},{""word"":""死亡"",""x"":430,""y"":293.8,""cx"":449,""cy"":311.2,""angle_rad"":-0.373,""angle_deg"":338.6},{""word"":""快乐"",""x"":315,""y"":273.8,""cx"":334,""cy"":291.2,""angle_rad"":-1.836,""angle_deg"":254.8},{""word"":""身份"",""x"":311,""y"":372.8,""cx"":330,""cy"":390.2,""angle_rad"":2.032,""angle_deg"":116.4},{""word"":""婚姻"",""x"":267,""y"":314.8,""cx"":286,""cy"":332.2,""angle_rad"":-2.87,""angle_deg"":195.5},{""word"":""错误"",""x"":399,""y"":334.8,""cx"":418,""cy"":352.2,""angle_rad"":0.032,""angle_deg"":1.9},{""word"":""脚踝"",""x"":446,""y"":182.8,""cx"":465,""cy"":200.2,""angle_rad"":-0.916,""angle_deg"":307.5},{""word"":""老虎"",""x"":369,""y"":102.8,""cx"":388,""cy"":120.2,""angle_rad"":-1.407,""angle_deg"":279.4},{""word"":""冷漠"",""x"":423,""y"":359.8,""cx"":442,""cy"":377.2,""angle_rad"":0.287,""angle_deg"":16.5},{""word"":""疾病"",""x"":450,""y"":370.8,""cx"":469,""cy"":388.2,""angle_rad"":0.311,""angle_deg"":17.8},{""word"":""扫帚"",""x"":157,""y"":265.8,""cx"":176,""cy"":283.2,""angle_rad"":-2.775,""angle_deg"":201},{""word"":""难过"",""x"":405,""y"":290.8,""cx"":424,""cy"":308.2,""angle_rad"":-0.514,""angle_deg"":330.5},{""word"":""钥匙"",""x"":226,""y"":266.8,""cx"":245,""cy"":284.2,""angle_rad"":-2.582,""angle_deg"":212.1},{""word"":""天堂"",""x"":354,""y"":265.8,""cx"":373,""cy"":283.2,""angle_rad"":-1.239,""angle_deg"":289},{""word"":""义务"",""x"":217,""y"":349.8,""cx"":236,""cy"":367.2,""angle_rad"":2.992,""angle_deg"":171.4},{""word"":""数据"",""x"":254,""y"":368.8,""cx"":273,""cy"":386.2,""angle_rad"":2.702,""angle_deg"":154.8},{""word"":""爱心"",""x"":206,""y"":369.8,""cx"":225,""cy"":387.2,""angle_rad"":2.852,""angle_deg"":163.4},{""word"":""内容"",""x"":187,""y"":335.8,""cx"":206,""cy"":353.2,""angle_rad"":3.119,""angle_deg"":178.7},{""word"":""现象"",""x"":310,""y"":344.8,""cx"":329,""cy"":362.2,""angle_rad"":2.615,""angle_deg"":149.8},{""word"":""柜子"",""x"":192,""y"":262.8,""cx"":211,""cy"":280.2,""angle_rad"":-2.676,""angle_deg"":206.7},{""word"":""奇迹"",""x"":351,""y"":252.8,""cx"":370,""cy"":270.2,""angle_rad"":-1.325,""angle_deg"":284.1},{""word"":""恐惧"",""x"":469,""y"":297.8,""cx"":488,""cy"":315.2,""angle_rad"":-0.247,""angle_deg"":345.8},{""word"":""膝盖"",""x"":415,""y"":212.8,""cx"":434,""cy"":230.2,""angle_rad"":-0.959,""angle_deg"":305},{""word"":""舒心"",""x"":357,""y"":292.8,""cx"":376,""cy"":310.2,""angle_rad"":-0.992,""angle_deg"":303.2},{""word"":""债务"",""x"":226,""y"":318.8,""cx"":245,""cy"":336.2,""angle_rad"":-3.011,""angle_deg"":187.5},{""word"":""大象"",""x"":388,""y"":132.8,""cx"":407,""cy"":150.2,""angle_rad"":-1.293,""angle_deg"":285.9},{""word"":""作用"",""x"":317,""y"":417.8,""cx"":336,""cy"":435.2,""angle_rad"":1.734,""angle_deg"":99.3},{""word"":""纪律"",""x"":308,""y"":391.8,""cx"":327,""cy"":409.2,""angle_rad"":1.941,""angle_deg"":111.2},{""word"":""电视"",""x"":137,""y"":210.8,""cx"":156,""cy"":228.2,""angle_rad"":-2.581,""angle_deg"":212.1},{""word"":""肩膀"",""x"":439,""y"":167.8,""cx"":458,""cy"":185.2,""angle_rad"":-0.991,""angle_deg"":303.2},{""word"":""鼻子"",""x"":379,""y"":159.8,""cx"":398,""cy"":177.2,""angle_rad"":-1.3,""angle_deg"":285.5},{""word"":""斧头"",""x"":489,""y"":318.8,""cx"":508,""cy"":336.2,""angle_rad"":-0.087,""angle_deg"":355},{""word"":""风景"",""x"":311,""y"":270.8,""cx"":330,""cy"":288.2,""angle_rad"":-1.884,""angle_deg"":252.1},{""word"":""熊猫"",""x"":425,""y"":128.8,""cx"":444,""cy"":146.2,""angle_rad"":-1.139,""angle_deg"":294.8},{""word"":""骗局"",""x"":496,""y"":367.8,""cx"":515,""cy"":385.2,""angle_rad"":0.21,""angle_deg"":12},{""word"":""桌子"",""x"":235,""y"":192.8,""cx"":254,""cy"":210.2,""angle_rad"":-2.173,""angle_deg"":235.5}],""n_words"":90,""words"":[""骄傲"",""冰箱"",""兔子"",""反感"",""协议"",""嘴唇"",""剪刀"",""长颈鹿"",""制度"",""过失"",""友情"",""方法"",""蚂蚁"",""沮丧"",""沙发"",""暴力"",""筷子"",""概念"",""麻雀"",""椅子"",""买卖"",""魔力"",""结果"",""敌意"",""纠纷"",""关系"",""铅笔"",""愤怒"",""团队"",""洗衣机"",""大腿"",""慈善"",""手指"",""性质"",""猫"",""眼睛"",""床"",""鼠标"",""微波炉"",""原因"",""锤子"",""勺子"",""缘分"",""胳膊"",""老鼠"",""兴奋"",""耳朵"",""社会"",""牙刷"",""过程"",""光彩"",""空调"",""乌龟"",""地位"",""创伤"",""死亡"",""快乐"",""身份"",""婚姻"",""错误"",""脚踝"",""老虎"",""冷漠"",""疾病"",""扫帚"",""难过"",""钥匙"",""天堂"",""义务"",""数据"",""爱心"",""内容"",""现象"",""柜子"",""奇迹"",""恐惧"",""膝盖"",""舒心"",""债务"",""大象"",""作用"",""纪律"",""电视"",""肩膀"",""鼻子"",""斧头"",""风景"",""熊猫"",""骗局"",""桌子""],""distance_matrix"":[[0,0.413345375770843,0.8426520374347478,0.4604999495527727,0.1902148379501188,0.4897134475224576,0.5780054577210346,0.7699604782304003,0.1582962639584406,0.4885411149610092,0.1742869273945543,0.21924688381116458,0.7542010390639655,0.4377073422151779,0.3113562395772824,0.4631479893079866,0.5191196686195438,0.11125939480639306,0.8787277397710448,0.5067657619874386,0.2979891950311942,0.5770954337039569,0.04099707277539526,0.38056380060725625,0.414462129859245,0.22778887717925095,0.5603061676159437,0.5356716603053155,0.07894749333636215,0.49967604618228106,0.5190294807372209,0.11312885724152989,0.5903472302997282,0.11469506784489797,0.8148387356977236,0.5866991235854937,0.25154652525583626,0.8617559014559439,0.4695884887271128,0.20151495098007352,0.3250297977785389,0.5720595174810978,0.20645878951961918,0.6561094485576154,0.8318789839584889,0.2645036147338623,0.5177230469520632,0.09463725859697154,0.4754400044975257,0.0800922035458272,0.38743900502048656,0.40576561818725226,0.8479954251069216,0.0450737712102392,0.36850847856396624,0.4453099188665349,0.288942176659159,0.08652274739635493,0.16775953495738138,0.32873030434116607,0.6601463408765815,0.7422005018681264,0.3698147136821253,0.43400784876902,0.4111483030691401,0.3965408446137478,0.3118196665118457,0.3520400259097663,0.15782806429248128,0.05373022011299531,0.1639988684409777,0.24109002300053453,0.1253233193093848,0.361157104383665,0.3759593741563524,0.5283225858996742,0.5516987761132515,0.3025535241130307,0.19576509723713756,0.6890439658977878,0.12289200232149447,0.07465847514973381,0.549337217591166,0.6786889674247413,0.6174914676257625,0.55679685978606,0.29282873178625507,0.7410815613872058,0.5505532945555092,0.4852451829286228],[0.413345375770843,0,0.6764657012816305,0.6896633240236435,0.5369296119432332,0.2691139870170853,0.1648114348730173,0.5945633692510438,0.42902699069515815,0.7501966908983866,0.33489304499478656,0.5924589718585842,0.4391602608628692,0.5991842862258829,0.13006173752068145,0.6536573411890461,0.1011729967084556,0.5295209356446792,0.5866457799659112,0.17159962515639837,0.5512184675723403,0.7089719092749011,0.43615000341220034,0.6049415771429879,0.5337558994722555,0.2204843725695104,0.15907996568037125,0.7364183898018697,0.3766416020928676,0.13228468830781936,0.42972132725127277,0.32118295851753503,0.39449653729011075,0.48912762362023493,0.5309637017624184,0.4455402336655333,0.1788823150430384,0.6579569469386928,0.04440521331550748,0.1991884636391247,0.6069984241440143,0.14607705977934748,0.28830547231128073,0.5351116433683195,0.5906811545772205,0.40146468002756047,0.3521101505405377,0.3108723855280393,0.1865410979775116,0.505989651049858,0.40644509526689726,0.10091991548414668,0.5221172277746765,0.3803442159769865,0.5465427819800536,0.5708773037077938,0.27894994538390067,0.4309338009902345,0.2469197206655683,0.5372785322727559,0.6012864604530059,0.5074485192158499,0.6213607891248234,0.6943047805729673,0.14376399989812347,0.5080874073846627,0.08913198374032977,0.3669956994756148,0.28912233198646825,0.3551823992102982,0.33887181081388856,0.25812030352097265,0.3741617677640385,0.07782363965293967,0.3532041021060665,0.6687256742479546,0.5127569623110004,0.39543772055416193,0.21448294401447437,0.5055949908469054,0.53467373143443,0.4666025881824929,0.17387601638556482,0.5928022922180674,0.45554145216988934,0.7319278372777909,0.26675538274428273,0.593662379028961,0.793797235661552,0.10522976291674246],[0.8426520374347478,0.6764657012816305,0,0.6433675632234942,0.7761979858418088,0.4010398549473151,0.7518544760101631,0.06941059321890711,0.7012171003746674,0.7092199630619217,0.6557221165516373,0.8275600036891907,0.3217475089236341,0.5414080485987922,0.6177501612722425,0.5821209616037671,0.624072897022459,0.9519692432653293,0.25334346725222767,0.4985390709488885,0.6630541033848382,0.5002373553083401,0.894565223361914,0.6263783938968179,0.49801345933958013,0.6390796261249704,0.5702852977216755,0.6109226051874971,0.8833103592548823,0.7976532031346911,0.3110600882531345,0.8514209394403545,0.2725873106193935,0.8010942013535213,0.23884998489293063,0.24683348920992537,0.645586057158672,0.06253824204367764,0.6613949077690943,0.733317699685643,0.7037072374083477,0.6728002028683657,0.6290593320019653,0.17529326455238664,0.14421303598907712,0.5800317208735934,0.3324467145152702,0.7610740869140052,0.4773880303075513,0.8979594952950131,0.44953487244903145,0.570159144702912,0.332826336125073,0.7849479515464347,0.5698902928240258,0.4966719499635309,0.5479189289086562,0.7701034415355049,0.7037206258415617,0.6093158117602738,0.21505931781527826,0.1761757591686173,0.6643905734498721,0.6905367832472925,0.8325563227149029,0.4971613201710892,0.6906822543229324,0.4793023489236888,0.8527408021212626,0.83320666236695,0.9091707590546325,0.8798747050325896,0.7078723588411828,0.7539133247304732,0.45405048008015897,0.5098770331106538,0.29894229746319567,0.5378537673155344,0.7796070773757973,0.15932181619005858,0.8687587069967962,0.8169069805065822,0.8166525870401043,0.1772731108631113,0.22164711038405374,0.5705430038139823,0.5477078728416632,0.08913198374032974,0.6955247244143568,0.5709375669150663],[0.4604999495527727,0.6896633240236435,0.6433675632234942,0,0.2691139870170853,0.5369296119432332,0.8621945338565343,0.6059398470246088,0.303444827436955,0.05980975727826619,0.3667261294331759,0.27982573368557645,0.7580601520305114,0.10279065546665944,0.5473768681259933,0.049346832205159945,0.7440744002874097,0.49776924138999096,0.8166101805416726,0.6469833668732901,0.1519554581442244,0.15814657971169194,0.5055826528725946,0.0751332415228504,0.17196365594857432,0.467934902062866,0.7447838310297232,0.06671697336658323,0.5488022203452967,0.8274458461735165,0.4069711236948547,0.5618051840179935,0.5384922132040733,0.3409664740094258,0.7607434597169073,0.4787691732309871,0.5088665266636425,0.6990192911022244,0.7266233946525756,0.5472341333253641,0.12780360690596487,0.8149430432981167,0.40007271712079406,0.4835471298461088,0.7214853181986429,0.2766052303280234,0.4874427536283067,0.46822086740468294,0.5965503033275906,0.44470216934771684,0.30570233918151646,0.6033036110698505,0.8379368229991442,0.4262386597989761,0.13184283422657556,0.15021274708833568,0.3992430432085804,0.362838187704853,0.4793023489236888,0.1426151388143103,0.415770036459985,0.6559947069105134,0.07814112971996935,0.039485777479848015,0.7789288568954479,0.19169087315927524,0.6121313846560449,0.3285991689859797,0.5967759198384549,0.5049839081080545,0.6261932594629329,0.6738069060438591,0.3620113888360121,0.6966208798100898,0.355963806820682,0.12670670717228696,0.3552693042350801,0.28313008000516054,0.5799022475690496,0.568725664329381,0.38101884492494215,0.37990467822077606,0.8738978877954542,0.45509739354595147,0.512343031331874,0.10184514493199796,0.4117589049618916,0.5573804405183863,0.09161466800587706,0.6798948727845879],[0.1902148379501188,0.5369296119432332,0.7761979858418088,0.2691139870170853,0,0.5065872360542851,0.7134283146591761,0.7149897367459204,0.09936088318825383,0.28813545685509767,0.19508904405112193,0.04814909755160542,0.7712217389274765,0.2770359636998266,0.4036053433639157,0.2854449228966816,0.624354012289974,0.21701652106963248,0.8724073104514934,0.5704223896101135,0.12242534120870888,0.40964443335477674,0.22865161860633218,0.20055741397070312,0.2813955792373273,0.30697518485953906,0.6488176895359749,0.34760353009139594,0.28176501567650497,0.6520432295706129,0.4651126773355543,0.3081034702653843,0.5714741828708513,0.06321556523090514,0.8093498320962419,0.5425032972431525,0.3467416841542549,0.8115870167529425,0.5872855903541911,0.3433901829337326,0.12889200590213387,0.68838757851142,0.2458212068700862,0.5902199723996098,0.8028210167954778,0.19729348534364233,0.501065722594637,0.23639733208155927,0.5269083095414087,0.16300062680017102,0.32138400955610413,0.4886622979727528,0.8630638381227965,0.17380744317389732,0.21601205181263783,0.3009468720826256,0.3016088310569244,0.10622904678474215,0.2811345208618432,0.1709913035262205,0.5647749328966163,0.719112484397951,0.17968186805392436,0.2358447221098394,0.5786708372562342,0.2734602272066698,0.43975425541300445,0.30596333571758094,0.34969183132805215,0.24682116809107632,0.36570508151944436,0.4327463228474587,0.15015384449066438,0.5110016011283718,0.33891728198979315,0.36293183349443664,0.4655407500341961,0.23780543628564577,0.35995781560082124,0.6478890650882693,0.10170543986717402,0.10367352697868444,0.7018885476591025,0.5931770813587972,0.5773935127656928,0.37543249993767935,0.3120659007277195,0.6761919296008854,0.3515136607487964,0.573659358643477],[0.4897134475224576,0.2691139870170853,0.4010398549473151,0.5369296119432332,0.5065872360542851,0,0.3846404366057416,0.31913684185733027,0.4004211476008916,0.6077512363213962,0.3186160998545007,0.5671618356512,0.25540281073262144,0.42545124419585706,0.20850658322818652,0.4844740596532753,0.2481117068087307,0.6117782123827098,0.3768140245430394,0.11877230135463931,0.45100761362139913,0.4970170675497564,0.5350182515377284,0.4688586888152899,0.35390251769936487,0.2544349817840323,0.21938470848714103,0.5581426842641315,0.5053049707504523,0.4034440231230226,0.16538700353751712,0.46352411943437377,0.11581987487698102,0.49651500100198803,0.31315693316516086,0.1645951147423177,0.24751025209613342,0.39355317324896105,0.2667096097269719,0.3334180838220693,0.5087316444936055,0.31420520172292743,0.2742079193171949,0.25377580982087,0.3425271142329737,0.3024114933703521,0.07347866972641956,0.38991646532948304,0.07600305323655732,0.5665605125582165,0.21884672821213746,0.15812785995575718,0.34898528369650206,0.43510162822091075,0.39901789030199075,0.38341539413986686,0.1973696127705887,0.44757314854778923,0.32091470195935135,0.4127746272395484,0.32679562965259834,0.25247666700284904,0.49862662034918465,0.5608806033231947,0.42276484817322113,0.3326689826898223,0.2775652194579297,0.20471549792716065,0.45570530584915314,0.46074313437585307,0.5133894031964233,0.47144119654546435,0.3767976066462891,0.3412195300260075,0.17256878395069358,0.4677818739843156,0.2536797943486583,0.2692614533516705,0.37728984284827205,0.22910167225736244,0.5614934436989312,0.49571066314388124,0.4327463228474587,0.31371577568279035,0.17403021401121038,0.5396916512291287,0.18966249896673187,0.31327466385301145,0.6329484582832646,0.1821264953005708],[0.5780054577210346,0.1648114348730173,0.7518544760101631,0.8621945338565343,0.7134283146591761,0.3846404366057416,0,0.6733410234166983,0.6062653585591418,0.9244939010524672,0.512343031331874,0.7681077625518739,0.45591004237031774,0.7670998076663728,0.3060034700565653,0.8231536837683326,0.1239259190179238,0.6874749084657209,0.6008540954527645,0.2555816550848227,0.7276616293674932,0.868609981785704,0.5935516387804753,0.7787834483191002,0.6992618313266512,0.39793699495703405,0.16901338862659976,0.9050100228578305,0.5279028315715562,0.08900625781613114,0.5610589516805708,0.4721143519684528,0.4916887488182404,0.6630718457483927,0.5572121612554428,0.5569764867682755,0.356310567875603,0.7171613543182256,0.12305701600250003,0.3668609383895845,0.7838730088632239,0.06671697336658323,0.4655942321798818,0.6425580885842848,0.6364597777476286,0.5759613565871008,0.47042970460238953,0.4806003603143255,0.296511379108649,0.670464179538197,0.5663617732462243,0.2498712719477825,0.5180665230189463,0.5508540670242662,0.7181288210230825,0.7353591863076344,0.4503158534144613,0.6050865039064547,0.42124966476816406,0.7116031366216515,0.7232034448858805,0.5668474601238025,0.7967096964235867,0.8691938561556469,0.19223774391490622,0.6739885145886185,0.2616279454138763,0.5306401490094931,0.4330620390744243,0.5156938082630373,0.4726021351300474,0.37765861260473493,0.5506497862385057,0.2056547967730765,0.511947056695342,0.8311935243326873,0.6486001601892692,0.5665605125582165,0.3708164820896456,0.5910201901042672,0.7049379276113252,0.6382402607846911,0.06731895483566229,0.7067711278600477,0.5572850883698204,0.8973519199237228,0.43779252024864673,0.6846151148423661,0.9659371036770529,0.1906556286784433],[0.7699604782304003,0.5945633692510438,0.06941059321890711,0.6059398470246088,0.7149897367459204,0.31913684185733027,0.6733410234166983,0,0.6342742316185039,0.6747144689351373,0.5833076932562318,0.768537591169318,0.2608809294831806,0.4981198767738265,0.5366270350346093,0.5439870796226299,0.5440789669069287,0.8818604856131852,0.22705643982629614,0.4174086184650169,0.6083345528647499,0.4766371943871684,0.8212236291172366,0.5794002710759112,0.44757314854778923,0.5608806033231947,0.4916887488182404,0.582448757478451,0.8072118332896003,0.7168152064850652,0.24098920522123055,0.7737747794968018,0.1907342407774815,0.7350129116886563,0.19428722453799643,0.17083455196835642,0.5658812047144351,0.08427276051750623,0.5802258778148945,0.6536573411890461,0.6527739079045013,0.5945844290440718,0.5541576706605031,0.11401538899987493,0.11532118127120916,0.5135291672835837,0.252368117626307,0.6853345970057718,0.39543772055416193,0.8288223128005456,0.38335081324062603,0.488107167040378,0.2905069965481338,0.7122649638869646,0.5185843297597933,0.4514469746776319,0.4722330470904181,0.7010782558394375,0.6261382091489064,0.55539719671757,0.18458945047424305,0.10791147258939236,0.6172326677323065,0.6503962592498466,0.750590531467988,0.4433580627487566,0.6089867547040785,0.4094854210131056,0.7737625837254324,0.7576867311717874,0.8304961322980781,0.7991432051593362,0.6369324255462714,0.6718620797315226,0.3822513220415388,0.4788342256248435,0.24528878800694792,0.47114391844528286,0.6997107618309613,0.07739857816586018,0.8030091754988895,0.7485730945335772,0.7367896105248378,0.1427797817575617,0.1426151388143103,0.5447619033028016,0.4712760645912851,0.03824443534707437,0.667969846864509,0.489815260217865],[0.1582962639584406,0.42902699069515815,0.7012171003746674,0.303444827436955,0.09936088318825383,0.4004211476008916,0.6062653585591418,0.6342742316185039,0,0.34403611395185496,0.08347781169663472,0.15937757955829818,0.6673072209813118,0.26768067824929387,0.2930170557143738,0.2973066132105238,0.51331646805956,0.24279783731396187,0.77507457753067,0.45884839080551293,0.13920588549072238,0.4071387043141719,0.2103922951148041,0.2183490189475378,0.24428286280014308,0.1969276887566737,0.5368598012906685,0.37410390800570575,0.2385192568885151,0.5499853614424953,0.3807832626799007,0.2460684702193878,0.4754793031825592,0.08856498714597114,0.7114088858715231,0.45532289135260295,0.23770329576372573,0.7295151612094362,0.4779096731456429,0.2463278426497736,0.18186369253847723,0.578216512845665,0.13397339486612747,0.5133103896749498,0.7124501672698822,0.10854625320747743,0.4033518120405202,0.15328540313938568,0.41600130669014396,0.1865410979775116,0.23905329381694973,0.3768140245430394,0.7600817809246586,0.1131034359233748,0.19820520039617595,0.27444186974851914,0.19223774391490622,0.06253824204367764,0.17993104757682418,0.16034128845788995,0.5035242677579739,0.6260330999185773,0.21562023116881834,0.28668642662383964,0.4837983442286998,0.22761595713403715,0.3344788456259535,0.21366507885708072,0.28077518634685117,0.19117390820747565,0.3113562395772824,0.35903000589062734,0.04893287134598868,0.4103327960605146,0.24428286280014308,0.3583067717455788,0.3976176258304926,0.15076148078322021,0.2712503821958731,0.5607746827401384,0.15662357190993625,0.10449517580794367,0.5993671435104518,0.5264993136720248,0.4890511613751627,0.39108219231636826,0.20203679756021747,0.5996804860976964,0.40126390796772526,0.4617954948759673],[0.4885411149610092,0.7501966908983866,0.7092199630619217,0.05980975727826619,0.28813545685509767,0.6077512363213962,0.9244939010524672,0.6747144689351373,0.34403611395185496,0,0.41756470226413883,0.28402585754002846,0.8305112991280581,0.17524222493411906,0.6075089924159566,0.12024797398540175,0.8092564839172899,0.5090626566591846,0.8880081042206662,0.7155694679768103,0.19438376127108312,0.2081014408115454,0.5293617019884892,0.1332301425361979,0.24404633424545782,0.5239494319364355,0.8123546478380945,0.09611705776505833,0.5791896380947485,0.8854451843811915,0.47939981855353997,0.5980964620442416,0.61094311249563,0.36351021721341364,0.8325563227149029,0.5509221441645038,0.5655716619566632,0.7668004483124643,0.789313045599363,0.5969699881394339,0.1518923219152526,0.8797851514550006,0.4551794053244763,0.5535481830032353,0.7917808537869064,0.3361235253727887,0.5596306085267682,0.5099015059759268,0.6652965949308812,0.45966135451719575,0.37628008813843955,0.6678571050457695,0.9102348593930666,0.46102669220312215,0.19861418849292511,0.22257316230776916,0.46215923007282966,0.39459075350172435,0.5289132373606549,0.2003173570027886,0.4822956046505871,0.7275353040401343,0.11850442938919972,0.045018354121842616,0.8318789839584889,0.263023144201225,0.6687538255237547,0.3970015539665105,0.6357600211614575,0.5389676648484948,0.6602033601535292,0.7154333604501603,0.40490897466836756,0.7518042929179989,0.42545124419585706,0.18726205665842727,0.42638432252215214,0.3474615119936727,0.6264534331189507,0.6398787177898754,0.3927732454080271,0.40378195573172865,0.9327405396673539,0.5223861843463422,0.5843367848851351,0.14018697133409638,0.47477800105218243,0.6256174987936146,0.052170570085245165,0.7460490216844653],[0.1742869273945543,0.33489304499478656,0.6557221165516373,0.3667261294331759,0.19508904405112193,0.3186160998545007,0.512343031331874,0.5833076932562318,0.08347781169663472,0.41756470226413883,0,0.2543511775520204,0.5866404453427998,0.30444454899156626,0.19717162400794122,0.3467416841542549,0.41722273052397396,0.2880185154609483,0.7025593645748361,0.3656459283031141,0.21133990262332972,0.4392451650306024,0.2265089817030976,0.27894994538390067,0.2603661703498358,0.10184514493199796,0.4412287971217469,0.42875909021495756,0.22629499924687466,0.4604796785086305,0.33211304356830834,0.2124042991758413,0.4080895998771823,0.16738700340214682,0.6385496265204968,0.4002663259085538,0.1434161325321359,0.6756858616148399,0.38260737447337495,0.16786583133192143,0.26342874900297997,0.482411858706169,0.03824443534707437,0.46929006779462734,0.6490496420169426,0.09611705776505833,0.3351137496051187,0.10949223832991004,0.32468879048807026,0.23831551532593553,0.20371302476336792,0.28094946406621485,0.6802410091135304,0.11658904691195258,0.23770329576372573,0.29648035455634675,0.10915148016658029,0.11631664002486547,0.1000154668107563,0.21229062450652433,0.47732278590349764,0.5602168831958738,0.2864192968477539,0.36003502881259225,0.40171165055380803,0.23763943677005617,0.24336041441855982,0.16588910397697557,0.23536823493093834,0.17416717171639662,0.279289625141757,0.3028981897569128,0.04557015106921173,0.3232166101055399,0.18902940208645086,0.39146210956357547,0.36830712177688607,0.12485909715759756,0.2024236353315487,0.5034065747674273,0.23057831207720256,0.1645229493371321,0.5092403358009406,0.4937131698491878,0.43161796136228425,0.4375156327113738,0.11631664002486547,0.5541576706605031,0.46939619418108064,0.3659500463845813],[0.21924688381116458,0.5924589718585842,0.8275600036891907,0.27982573368557645,0.04814909755160542,0.5671618356512,0.7681077625518739,0.768537591169318,0.15937757955829818,0.28402585754002846,0.2543511775520204,0,0.8313261151922505,0.30953555936593624,0.4614449675965505,0.30753483211079935,0.6823602075207114,0.21308514503912382,0.9308720167680782,0.6308205456129139,0.15818869166243732,0.4343727392876496,0.24769451846215373,0.2254908525449804,0.32471722092765953,0.36466432480546757,0.7082094960798913,0.35913321020183614,0.3093767528634167,0.7034528096172772,0.5207704107300287,0.3433093591402351,0.6299455173622309,0.0975189652988062,0.8680293504626907,0.5986458460174714,0.4036053433639157,0.8653535007343214,0.6438254977921368,0.3938993275687718,0.14317011149806022,0.7454925979175968,0.3052199364006839,0.6429483216156835,0.8593174810465377,0.25635527326575736,0.5600829304678612,0.2832165381166392,0.5875519767193458,0.16717378171290218,0.37758488653276173,0.547833375217223,0.9229404182310946,0.21601205181263783,0.2554028107326215,0.3395714160173514,0.36238665750782656,0.15247420078536836,0.3343959464293766,0.21130778550243706,0.6121313846560449,0.7765464443306295,0.1969276887566737,0.23840467260530346,0.6261382091489064,0.3200605929394455,0.4938962331692073,0.3645372067925886,0.3868552525810331,0.281862730102462,0.3954768894205573,0.4705620460704492,0.2063566270948836,0.5621111929632885,0.3977734466948131,0.38997999309701087,0.516074883766297,0.29601461206225316,0.4062314460316744,0.703689385774811,0.09887459103431152,0.1334491386894995,0.7534585993106967,0.64232871825644,0.6337600752726986,0.39193650443161193,0.3728039143407452,0.7284288356244532,0.34881727567848203,0.6328246465391635],[0.7542010390639655,0.4391602608628692,0.3217475089236341,0.7580601520305114,0.7712217389274765,0.25540281073262144,0.45591004237031774,0.2608809294831806,0.6673072209813118,0.8305112991280581,0.5866404453427998,0.8313261151922505,0,0.6426263961408447,0.4480383396948922,0.699032767727636,0.3503265482759112,0.8773063237542094,0.13585830951432795,0.26105619427136245,0.702086504120005,0.6724783053923563,0.7971480308186427,0.7042069026571873,0.5753907794981036,0.5148944717332459,0.28621611852927004,0.7596306875851441,0.7607103892228888,0.5249494277849873,0.33864436664652303,0.7139828936449422,0.20692521240526357,0.7643397052296055,0.08913198374032977,0.27211617025788554,0.4994763213428687,0.2671555772303671,0.4031596399394042,0.5783679931214194,0.7573920158275501,0.37805158335560013,0.5415926630940303,0.3089992731734178,0.17779423624555488,0.5631781676286612,0.2648264146926029,0.6512347020936984,0.27366129153963287,0.8335845370553967,0.4575447251661055,0.3645372067925886,0.08122295488743402,0.7009349041112726,0.6344916363292518,0.5954998241759488,0.4653735797616898,0.7156001984138463,0.5794866629316348,0.657532521005835,0.4091823745373037,0.14091737120084338,0.738187504971928,0.7914310454573027,0.5882812703031225,0.5599210291095693,0.4952828405831841,0.45777584586272746,0.6983496306338071,0.719806809901804,0.7553674693480414,0.6952673557791063,0.6448036280730362,0.5287715397761942,0.4240405675664862,0.6579569469386928,0.40438801116205125,0.5260187918360009,0.616882357354035,0.21679368571419716,0.8295248870410356,0.7636810916053249,0.5305813005315362,0.3731106768464339,0.24334792613701062,0.730789135384608,0.4576806922717533,0.29634587883332236,0.8422931283984079,0.32128828606292137],[0.4377073422151779,0.5991842862258829,0.5414080485987922,0.10279065546665944,0.2770359636998266,0.42545124419585706,0.7670998076663728,0.4981198767738265,0.26768067824929387,0.17524222493411906,0.30444454899156626,0.30953555936593624,0.6426263961408447,0,0.45940406749081475,0.04638817614410841,0.6438498470664851,0.5016876764710703,0.7031178984183538,0.540114020679796,0.14202200654176117,0.1268213700899173,0.48831780636037836,0.07614719343953091,0.0589664792201648,0.39039267950826306,0.63968761316403,0.1253233193093848,0.5183917164674552,0.7408439967579074,0.29157025962066785,0.5203267138269333,0.42305844764098705,0.3353894335497849,0.6464791245181105,0.36394342204592856,0.42884599466927187,0.5928867719903785,0.6315256679433511,0.4805420232079819,0.16043366998730768,0.7150776044976948,0.32679562965259834,0.3735827801272471,0.6102506177177355,0.19989660488691438,0.3727458507233051,0.41980310546967126,0.48954159179283924,0.4450655189540808,0.1962707014309712,0.5052987983457282,0.7227471193671745,0.39285997813509504,0.056928481380387724,0.03533412768292496,0.3080536300687799,0.33906275024678323,0.4147614327992049,0.0975189652988062,0.31452782183848166,0.542330506946819,0.1131034359233748,0.14068819186863826,0.7023671280737235,0.08203683775923822,0.5304223777878033,0.22510120661566535,0.5493997903682837,0.4696083768900725,0.587147022687855,0.6199018272808899,0.3167093751309859,0.6166588692019411,0.2489929685694157,0.07800016031386243,0.2432604911019255,0.1928142816715738,0.5186625589638907,0.4559714458841377,0.39032921679991317,0.36903653472383663,0.785384734173874,0.3515575535680717,0.3978435467861849,0.12253772329251751,0.3200029336502597,0.4509300360910407,0.19488887960169807,0.5780054577210346],[0.3113562395772824,0.13006173752068145,0.6177501612722425,0.5473768681259933,0.4036053433639157,0.20850658322818652,0.3060034700565653,0.5366270350346093,0.2930170557143738,0.6075089924159566,0.19717162400794122,0.4614449675965505,0.4480383396948922,0.45940406749081475,0,0.5127813010368836,0.20827516425437637,0.434465702968042,0.5853373748245968,0.1848486260965921,0.40902508338297927,0.5745420411786107,0.3464569101022454,0.4623409932178088,0.39602485936473153,0.0841407224813122,0.2392691297625194,0.5958729518908551,0.3020662947033787,0.26884153850850484,0.3293478365862792,0.2535236953340919,0.3342485211638133,0.36392644300964355,0.5235441414969734,0.3654176791987572,0.04814909755160542,0.6143941147066394,0.17344701924588288,0.11769751040231241,0.465293317261632,0.27259851876226154,0.14827744441854782,0.45320027507903554,0.5624615122276235,0.2588160362872214,0.27367245764032105,0.2040821200840732,0.16174020616330387,0.40045210497638634,0.2756642227939372,0.08176632306121813,0.5400214741748193,0.26702986352676633,0.40479411213897054,0.43367131297245765,0.13884227576899982,0.30632436297081594,0.1311997349602719,0.39461430414895987,0.5024578563283987,0.4729577757728226,0.478697605649974,0.5516024638181292,0.24083790336747918,0.37024078550928996,0.06831231053642417,0.2332711234120554,0.2387101146150373,0.2656087983937581,0.29624239613110687,0.25049162976832434,0.24279783731396187,0.15202827755961829,0.22553112436221767,0.5324202450294983,0.4034670727008026,0.2544349817840323,0.15812785995575718,0.4469614358794523,0.4170814019102991,0.3475414040638596,0.31416607461262147,0.5018865429300681,0.3846404366057416,0.5932984422145424,0.1272333783232338,0.5244972793118281,0.6515813343814153,0.16327343629387428],[0.4631479893079866,0.6536573411890461,0.5821209616037671,0.049346832205159945,0.2854449228966816,0.4844740596532753,0.8231536837683326,0.5439870796226299,0.2973066132105238,0.12024797398540175,0.3467416841542549,0.30753483211079935,0.699032767727636,0.04638817614410841,0.5127813010368836,0,0.7012171003746674,0.5146823232115565,0.755159308188941,0.5988079507147891,0.15425076815266903,0.11441860053170917,0.5114897911555533,0.07235773106099702,0.11799151218212987,0.43964824217111353,0.6981202730523859,0.07076311179546543,0.5478961158677078,0.7941935676109666,0.3477454922241462,0.554879178802257,0.4795557298135379,0.35148732251759673,0.6996793459050862,0.4182997644350141,0.4792178596207397,0.6372128975275239,0.6874749084657209,0.5258050889273262,0.1518534568066529,0.7723954584024242,0.3739716246135589,0.4215811027605217,0.6595758820987764,0.2472274565687174,0.4309121787373459,0.45689834373292915,0.5482382140537443,0.45940406749081475,0.25511641130212864,0.5619554269554696,0.7778133742334715,0.4228969924259044,0.0975189652988062,0.09115368808660809,0.3620711158092146,0.3640198182377192,0.4588280487521119,0.12504497383617652,0.35443416667696725,0.5946528683277031,0.09827093360745774,0.09635196121540882,0.7520718980217068,0.14060476895445714,0.5817176861084348,0.2827298820510153,0.5866991235854937,0.5011217292758141,0.6208916628455344,0.6602746274554255,0.35149610213966853,0.6674858645540215,0.30749488975221617,0.07333005566784997,0.2936126508307254,0.24573460879469083,0.5618051840179935,0.5071103281858005,0.39973174487949076,0.3881335994843823,0.839412661534771,0.3934823326097956,0.45155029331370633,0.08118888990067125,0.37426919864537955,0.4955093797481551,0.13585830951432795,0.6357353680809992],[0.5191196686195438,0.1011729967084556,0.624072897022459,0.7440744002874097,0.624354012289974,0.2481117068087307,0.1239259190179238,0.5440789669069287,0.51331646805956,0.8092564839172899,0.41722273052397396,0.6823602075207114,0.3503265482759112,0.6438498470664851,0.20827516425437637,0.7012171003746674,0,0.6380830663072093,0.498739161839806,0.1194517061048276,0.6199485762820557,0.7387833753580056,0.5455184686795785,0.6635258917444459,0.5743296648424489,0.3050589726990357,0.05261298944056258,0.7816664384694297,0.4883624760431673,0.16408933809171675,0.4249255132534188,0.43334885988477834,0.3569252674452098,0.5839242894717483,0.4481285462597326,0.4208147287720887,0.2671212972771692,0.5948213014066058,0.04746156022858516,0.30628426901351885,0.6777588460298095,0.05860842901539664,0.3672650782402893,0.507054966882721,0.5189753606637446,0.464309005480704,0.33386123141184026,0.41382541366101694,0.1602118713703004,0.6111122720619402,0.4387638302619657,0.12916280038239547,0.42583054674071136,0.48141635653468756,0.5996073871711016,0.6093415120113047,0.3357199663018909,0.5259772451331224,0.3450028231257683,0.5979079880246729,0.5866884552414059,0.443133659609872,0.6847801572288186,0.7556005428848714,0.228625118718091,0.549604525313785,0.19663764635274833,0.40610931181350707,0.4025440914849755,0.4638798262758285,0.4526852842577936,0.37070808361535657,0.46366509165586844,0.1867496426924118,0.3843828470501754,0.70320275740809,0.5127082814765065,0.44915427109530165,0.3263998265475091,0.45940406749081475,0.6344471731260847,0.5652840809428135,0.18008040064728212,0.5707183981388081,0.4222211665894781,0.7711850318739822,0.32309284349653333,0.5522366895919834,0.8466905957753863,0.055442134382736166],[0.11125939480639306,0.5295209356446792,0.9519692432653293,0.49776924138999096,0.21701652106963248,0.6117782123827098,0.6874749084657209,0.8818604856131852,0.24279783731396187,0.5090626566591846,0.2880185154609483,0.21308514503912382,0.8773063237542094,0.5016876764710703,0.434465702968042,0.5146823232115565,0.6380830663072093,0,1,0.6304676945302835,0.3492349408865723,0.6374883311153576,0.08132507575310281,0.4296851907940547,0.4933657988823719,0.3516189946295497,0.6816928974095025,0.5767049932520991,0.1493664301642602,0.6027479952688294,0.6287952312776304,0.20377212231645303,0.7084223436456946,0.15411183162545777,0.9360218188520777,0.6996793459050862,0.3750616127946341,0.9753108066195187,0.5863629794735546,0.31915611290284956,0.3573489011132147,0.6878538108775685,0.3260885139425497,0.7642532940233105,0.9496198935588147,0.3620711158092146,0.6354937182680809,0.217961169087966,0.5993305764245478,0.044573085163500344,0.49108618263071274,0.5288187764245116,0.9711470771415929,0.16403506186036934,0.43608588756524236,0.5190715703193152,0.4074584453215049,0.16992624111707913,0.29130742207728366,0.392134004866845,0.7588478913970743,0.8605521874654553,0.4091596372745641,0.46090518821094933,0.5071103281858005,0.4796076892597632,0.42916449808403045,0.46015522360298744,0.24614260315464986,0.16174020616330387,0.2252221995199299,0.32061745175254636,0.2324637776979209,0.46917728289637384,0.4870590363484129,0.589965375977017,0.6523654038356601,0.40325958051361166,0.304797232604876,0.8035968918872957,0.10427663403391159,0.1259706184573077,0.6513069320772448,0.7810141471085662,0.7316916461783536,0.6050916792334429,0.41247392549475864,0.8501953974574787,0.5737193359260409,0.6071789761390352],[0.8787277397710448,0.5866457799659112,0.25334346725222767,0.8166101805416726,0.8724073104514934,0.3768140245430394,0.6008540954527645,0.22705643982629614,0.77507457753067,0.8880081042206662,0.7025593645748361,0.9308720167680782,0.13585830951432795,0.7031178984183538,0.5853373748245968,0.755159308188941,0.498739161839806,1,0,0.4060787726926336,0.7871624566786891,0.704777522528453,0.9244666093104544,0.7754519292879413,0.6423482422625046,0.6434845130716308,0.4344156480037963,0.804348551939081,0.8933274689326515,0.6728375145359038,0.40644509526689726,0.8491721629227418,0.2883054723112807,0.8750042738081769,0.051376498044967224,0.32909534463514806,0.6328692215027597,0.1809410733171461,0.5516024638181292,0.7152137785498741,0.8387182470831457,0.5240566634698153,0.6613427326874471,0.3266543244042498,0.10035548341847077,0.6625038588516121,0.359279367286634,0.7793164825760106,0.41256415834674565,0.9530457736799347,0.5434296879047587,0.5068088452616011,0.08213808172058919,0.823455808264627,0.7084445116540095,0.6551478784020052,0.5810180263024557,0.8304202940553774,0.7096095897460254,0.7381193753858506,0.4172673509600823,0.14817808006361838,0.8118119524013403,0.8561218474290782,0.7366658907182051,0.6316199567593438,0.6382009657246559,0.5538191473670921,0.836688060336316,0.8498285073045875,0.8941739794057919,0.8386130971613328,0.7605119365534702,0.675783389883646,0.5208962575026584,0.7001414691055892,0.4490434917877875,0.6222224714607683,0.7558002639366039,0.23575464599046164,0.9419981591472655,0.8790289609615808,0.6768738367285705,0.3759758274657233,0.2940194967834575,0.7698951148776714,0.5751787098058508,0.2761627851843157,0.8895508659376781,0.46883876968560295],[0.5067657619874386,0.17159962515639837,0.4985390709488885,0.6469833668732901,0.5704223896101135,0.11877230135463931,0.2555816550848227,0.4174086184650169,0.45884839080551293,0.7155694679768103,0.3656459283031141,0.6308205456129139,0.26105619427136245,0.540114020679796,0.1848486260965921,0.5988079507147891,0.1194517061048276,0.6304676945302835,0.4060787726926336,0,0.5406241943292208,0.622922042528794,0.5436768479891217,0.5720376463570337,0.4688586888152899,0.26880746390111016,0.08928892307300645,0.6761501582536237,0.4989266759724488,0.28693197564105466,0.29680079160199463,0.4487872127756263,0.2254237177107994,0.5441708390276834,0.34844561214526965,0.288783126657921,0.24286040705166947,0.4754793031825592,0.15021274708833568,0.312449653692356,0.5992887827935574,0.18310886337690271,0.3152013652693766,0.3750203812085681,0.40649849055952836,0.3844794627135369,0.20323966193660087,0.39990226622719866,0.037929339138543086,0.5936201946527764,0.33128674542629816,0.09349881416684443,0.349382886412671,0.4590720954962509,0.5043411846552226,0.5014203285216294,0.25928670703394935,0.4890447889953757,0.3265318122365259,0.5102378917201582,0.4551794053244763,0.3242240869887056,0.5978242031158172,0.6650135933428489,0.32699335823337233,0.44556116563402387,0.22213782816878896,0.30594326665209765,0.4289401218612212,0.4630673513035059,0.4850910538476493,0.4216694435079039,0.42016519855533774,0.2583445480471183,0.2787964118511977,0.5908083152216724,0.38508277887000847,0.36036086393892525,0.347354961653524,0.33066338861786204,0.6031426898495763,0.5339723426228116,0.30995205448400975,0.43865050041406434,0.2904226182542178,0.6612620905248963,0.24769451846215373,0.4223975701987764,0.7467608175868089,0.059765619065016894],[0.2979891950311942,0.5512184675723403,0.6630541033848382,0.1519554581442244,0.12242534120870888,0.45100761362139913,0.7276616293674932,0.6083345528647499,0.13920588549072238,0.19438376127108312,0.21133990262332972,0.15818869166243732,0.702086504120005,0.14202200654176117,0.40902508338297927,0.15425076815266903,0.6199485762820557,0.3492349408865723,0.7871624566786891,0.5406241943292208,0,0.2756226370059227,0.3451927246247876,0.07011859293134991,0.154900795466823,0.3207637127950739,0.6312936090519747,0.2251583498251582,0.38498027970593585,0.6825867171285451,0.3691223795378386,0.3972297644801468,0.48946678435649876,0.18473932788160913,0.7260793872327791,0.4474776220510383,0.3627807116781748,0.7051929424255968,0.5940274149443017,0.3900375564793954,0.046021476447336986,0.6889630902178692,0.2517551855836034,0.4817672734848879,0.7070343775754562,0.14411619389202407,0.4248250413977678,0.30476953593497996,0.49220986339676703,0.29332283487368815,0.23270169972701582,0.47834775040010785,0.7901587258407136,0.26173574434369634,0.08461028974614809,0.16884171761486513,0.27261252832155425,0.1993732602641292,0.32201748614176207,0.0413682895633408,0.44366818840343014,0.6287117428665566,0.06406422818671702,0.13672230556725656,0.6255836880073987,0.15325168223691088,0.4652682324659863,0.23422156088228543,0.4326117166581476,0.34048924192687285,0.4616286896816245,0.5105816989011579,0.1989052990262301,0.5468471389611823,0.26745534786238084,0.22833674426794134,0.35195454328040365,0.16973790106264983,0.41960530420903214,0.5501174570290764,0.23616936857622287,0.22126814613914764,0.7306869967399993,0.4755333337089426,0.4829685310034619,0.2470582469480392,0.28509347504713733,0.5657775816127866,0.24971595329598803,0.5604693547391738],[0.5770954337039569,0.7089719092749011,0.5002373553083401,0.15814657971169194,0.40964443335477674,0.4970170675497564,0.868609981785704,0.4766371943871684,0.4071387043141719,0.2081014408115454,0.4392451650306024,0.4343727392876496,0.6724783053923563,0.1268213700899173,0.5745420411786107,0.11441860053170917,0.7387833753580056,0.6374883311153576,0.704777522528453,0.622922042528794,0.2756226370059227,0,0.6274730932081116,0.19717162400794122,0.16948794079168433,0.515839012284186,0.7247658457063156,0.10125723215338064,0.6577137694458386,0.8532098479308117,0.3325115575183237,0.6584478014196686,0.45944470108030827,0.4722330470904181,0.6552962705513499,0.3882691842906614,0.5516987761132515,0.563305849728225,0.7348204675842083,0.6108815885478162,0.27885125453904275,0.8095792679856241,0.4563056128548008,0.36560367034195174,0.6005361388579439,0.33174191890439125,0.42740261151400444,0.5571111698407317,0.5733430132708212,0.5814110136380943,0.2903276645841807,0.6066681357974291,0.741624285284217,0.532209052916237,0.1963166047854953,0.13168786572555116,0.4243991498942846,0.4783265883690464,0.5469542675069152,0.23614045687640092,0.27946478917953116,0.5486199772719598,0.22532969712458864,0.2102345664962933,0.8241934511352518,0.19470394091118787,0.6501117188554912,0.32955343302217227,0.68619516796149,0.6086626689519499,0.7254461903714556,0.7544302992827995,0.455288732003355,0.7366530909515951,0.3444213210001321,0.03619270114666123,0.25577229104928023,0.3161167257392073,0.6511143013209968,0.4588280487521119,0.5239315579307684,0.5070611184298455,0.8951993146153228,0.32122126328777745,0.4166645837701996,0.058338706121498295,0.43525868405105517,0.42596905623393627,0.18338630597719544,0.6710582856536106],[0.04099707277539526,0.43615000341220034,0.894565223361914,0.5055826528725946,0.22865161860633218,0.5350182515377284,0.5935516387804753,0.8212236291172366,0.2103922951148041,0.5293617019884892,0.2265089817030976,0.24769451846215373,0.7971480308186427,0.48831780636037836,0.3464569101022454,0.5114897911555533,0.5455184686795785,0.08132507575310281,0.9244666093104544,0.5436768479891217,0.3451927246247876,0.6274730932081116,0,0.4279544114117919,0.4671292942448788,0.26962411918164736,0.5906387617394901,0.5819919432017757,0.0589664792201648,0.509503679790339,0.5711347484617983,0.11081997699719263,0.6391139630786956,0.15328540313938568,0.8607388900789715,0.6378078845601446,0.2885284719464211,0.9123904927414356,0.49308140880106016,0.22688299101633294,0.36776964928515,0.5942737229925578,0.25565315944512723,0.7084179099622487,0.8805585980232605,0.3181428652674139,0.566808840843679,0.13327396806087075,0.5152761242333552,0.07800016031386243,0.4407072590164081,0.4403262981783422,0.8907300961927294,0.09760599262904394,0.4194555065889239,0.49742463273331805,0.338325697189649,0.1366955485997321,0.2057572874973076,0.37873016424466194,0.7136176233419245,0.7905837196687115,0.4148137892672571,0.4762449961404472,0.4152025224521808,0.4495902065390825,0.33631596858426915,0.40477113584019697,0.15441829628954903,0.06925459743853034,0.1426151388143103,0.23263328004973094,0.1788823150430384,0.3752594634011793,0.4280052003337679,0.5788005801296324,0.6050865039064547,0.3561198896467883,0.21086481312073427,0.7394467891026497,0.14018697133409638,0.11333204310951646,0.5583106892707554,0.7318591348681845,0.6681201402452909,0.6047966163620045,0.3414001735841884,0.7931111210326479,0.592421987277738,0.5167999830740653],[0.38056380060725625,0.6049415771429879,0.6263783938968179,0.0751332415228504,0.20055741397070312,0.4688586888152899,0.7787834483191002,0.5794002710759112,0.2183490189475378,0.1332301425361979,0.27894994538390067,0.2254908525449804,0.7042069026571873,0.07614719343953091,0.4623409932178088,0.07235773106099702,0.6635258917444459,0.4296851907940547,0.7754519292879413,0.5720376463570337,0.07011859293134991,0.19717162400794122,0.4279544114117919,0,0.12080013877021598,0.38097823735564695,0.6677396457857089,0.1432726674392267,0.4668960148332452,0.7414165699374741,0.35768573257811564,0.4770551929640289,0.48605998968207187,0.26675538274428273,0.7167801443805002,0.4338360323965211,0.4221697020558364,0.6751840692238269,0.6435186195175937,0.45945824483295766,0.07235773106099702,0.7339816880674802,0.312803485566425,0.4534541276183384,0.6871826026706278,0.19090708052684058,0.4283823063620324,0.3818301184710569,0.522045483173376,0.37442615937441065,0.23850652788311277,0.522045483173376,0.7882120268353917,0.3428240304585662,0.05761438289235979,0.11720602817139941,0.31629171694236463,0.2817324369933796,0.3915333042905808,0.055442134382736166,0.4007538178964787,0.6148884769323926,0.02537042006752148,0.08033320904455118,0.6914318625170671,0.13210810852692031,0.5254724934917693,0.25425536906572105,0.510934439402021,0.42148537999827085,0.54220952172258,0.5870723960676438,0.27561986440674646,0.6095624903493513,0.28432743804109356,0.1518923219152526,0.32190999919529667,0.20181330451569132,0.4923222522231886,0.5310989485503536,0.3148891695282272,0.30383903412576957,0.7882758953382701,0.43652738887076714,0.468792288511332,0.1643785302690037,0.32890819322041015,0.5335452238105526,0.178481284217905,0.600645617931326],[0.414462129859245,0.5337558994722555,0.49801345933958013,0.17196365594857432,0.2813955792373273,0.35390251769936487,0.6992618313266512,0.44757314854778923,0.24428286280014308,0.24404633424545782,0.2603661703498358,0.32471722092765953,0.5753907794981036,0.0589664792201648,0.39602485936473153,0.11799151218212987,0.5743296648424489,0.4933657988823719,0.6423482422625046,0.4688586888152899,0.154900795466823,0.16948794079168433,0.4671292942448788,0.12080013877021598,0,0.33381509665129944,0.5687476600456831,0.19508904405112193,0.48831780636037836,0.6767022637654571,0.22590666681008004,0.4833795829080577,0.3561198896467883,0.3273790683589803,0.584133251353991,0.3010080345156999,0.3701906840240836,0.5438607098336973,0.5639715586340555,0.428969080037848,0.19317185600880762,0.6455812002211652,0.27444186974851914,0.321173381638194,0.5538135035982139,0.15171735655417234,0.30294884413298007,0.3807995142599612,0.418292345833072,0.43615000341220034,0.12492883034281067,0.4369257915737001,0.6574466493704841,0.36435916956677317,0.05927831095704543,0.02537042006752148,0.24474284725407255,0.31913684185733027,0.36570508151944436,0.10100433851292717,0.2763398445300801,0.4816751212670262,0.15797802796989932,0.20353563516988496,0.6433042066830006,0.013143879007833602,0.46976745267656,0.15603705394073925,0.508357470378996,0.4375440392707355,0.5505646473762488,0.574046376805732,0.28363766011651237,0.5563194502334152,0.1781967108388278,0.12448658794570863,0.18964669569271544,0.1340169982895189,0.46976745267656,0.3976565865943792,0.3889941835227499,0.355963806820682,0.720256242017939,0.3092079350977334,0.3357658488281811,0.18568860783889088,0.25615315736940314,0.4028212011484249,0.2664920853919148,0.5080321499704885],[0.22778887717925095,0.2204843725695104,0.6390796261249704,0.467934902062866,0.30697518485953906,0.2544349817840323,0.39793699495703405,0.5608806033231947,0.1969276887566737,0.5239494319364355,0.10184514493199796,0.36466432480546757,0.5148944717332459,0.39039267950826306,0.0841407224813122,0.43964824217111353,0.3050589726990357,0.3516189946295497,0.6434845130716308,0.26880746390111016,0.3207637127950739,0.515839012284186,0.26962411918164736,0.38097823735564695,0.33381509665129944,0,0.33399037607522836,0.5230072561570248,0.2387101146150373,0.3492680682736029,0.32665432440424985,0.20055741397070312,0.3668609383895845,0.26798843211288936,0.5800317208735934,0.37984766506518675,0.02944155455478172,0.6466100706578165,0.26835274096587636,0.09031872334624828,0.3752347375944561,0.36883545666206113,0.056374852466109224,0.46126286078767004,0.6059605195160115,0.17993104757682418,0.2973375550663742,0.12373851717038063,0.2351748034589189,0.3124398195316719,0.23445132139565744,0.17380744317389732,0.6085185765644312,0.17782780827742284,0.32964684512395,0.3717823768065669,0.09031872334624828,0.21086481312073427,0.054114439433359,0.3129213440680961,0.49237289816537194,0.5155001408015844,0.39340360629319027,0.4670226663055042,0.2997825108883675,0.30849195832681714,0.13217435117621482,0.18966249896673187,0.2019474282741941,0.1937148020373065,0.25763577352622663,0.24405878855017837,0.14607705977934748,0.21605399278052909,0.19545807260036238,0.4706480485912186,0.38599005096607436,0.18718207859173167,0.1366955485997321,0.4741676374154284,0.32329275150827547,0.25377580982087,0.39728241040257517,0.49967604618228106,0.4056280616610565,0.5255734816894376,0.08493027059203986,0.540501390993273,0.5719720280754979,0.25796676598859986],[0.5603061676159437,0.15907996568037125,0.5702852977216755,0.7447838310297232,0.6488176895359749,0.21938470848714103,0.16901338862659976,0.4916887488182404,0.5368598012906685,0.8123546478380945,0.4412287971217469,0.7082094960798913,0.28621611852927004,0.63968761316403,0.2392691297625194,0.6981202730523859,0.05261298944056258,0.6816928974095025,0.4344156480037963,0.08928892307300645,0.6312936090519747,0.7247658457063156,0.5906387617394901,0.6677396457857089,0.5687476600456831,0.33399037607522836,0,0.7763600787007274,0.5372087659200433,0.22629499924687466,0.3970327697454945,0.4832828954643749,0.3137059796752623,0.614582731831914,0.38502650808979266,0.3824779379845729,0.300017775031926,0.537138990714107,0.11063858501544778,0.35149610213966853,0.689795322395965,0.0905048551698775,0.39039267950826306,0.4653735797616898,0.45877379898501947,0.4745352598048642,0.3017613928965303,0.4534541276183384,0.13892666874981643,0.6509553388518802,0.4313084193823787,0.14793935475669,0.36060933622026914,0.5185000700391105,0.6012031366777174,0.6019578456933786,0.3464034898223056,0.5574645615231729,0.38192735920339277,0.6042838033336762,0.5505532945555092,0.38611834743767864,0.6918676311693935,0.7606029003493217,0.2938317888399705,0.545014205808514,0.24532596916674798,0.4036283840091518,0.4554868215319885,0.508743907950958,0.5077189137872352,0.4297574607567688,0.4917901628272816,0.24803813385080586,0.3780515833556002,0.6922668491174824,0.48534148937962995,0.45411212822687985,0.3767976066462891,0.4098714900320312,0.6689508518985492,0.5993932615199188,0.2362047005365867,0.5310636700230115,0.37949725954196434,0.7623745604224388,0.33411025305194564,0.5036976611626933,0.8455737846125916,0.06342599192716653],[0.5356716603053155,0.7364183898018697,0.6109226051874971,0.06671697336658323,0.34760353009139594,0.5581426842641315,0.9050100228578305,0.582448757478451,0.37410390800570575,0.09611705776505833,0.42875909021495756,0.35913321020183614,0.7596306875851441,0.1253233193093848,0.5958729518908551,0.07076311179546543,0.7816664384694297,0.5767049932520991,0.804348551939081,0.6761501582536237,0.2251583498251582,0.10125723215338064,0.5819919432017757,0.1432726674392267,0.19508904405112193,0.5230072561570248,0.7763600787007274,0,0.62266545484327,0.8773350616972964,0.4103025618997107,0.6327305337278605,0.5416330393181815,0.4183887776990069,0.7518419305459504,0.47551204967002253,0.5626226985992021,0.6717920189825175,0.769404715597445,0.6083898943957843,0.20675042002613228,0.852907028530857,0.4571161715537586,0.4658548720369017,0.7035644118812859,0.3305236759942278,0.4989266759724488,0.5364407509847111,0.6256174987936146,0.5232459382690408,0.33240965589966065,0.6432652150008851,0.8342944850499403,0.498739161839806,0.18075932735892875,0.1623441487313985,0.44491881634617164,0.4371746140740579,0.5411483303390043,0.20483313214547208,0.3866070995242284,0.6455034843464291,0.15546750757529276,0.11251732053749697,0.8354223801950599,0.21945359013376264,0.6651126573404138,0.36293183349443664,0.6659517618546807,0.5773989309911581,0.6980617975168466,0.7408864245062083,0.43045065265355614,0.7508920591914682,0.3859258872436335,0.09161466800587706,0.34521729274846485,0.328795853131986,0.6436793831757546,0.556257638542696,0.4600673120750778,0.4567893919185369,0.922362752945347,0.4278020095062152,0.506876540330945,0.03151738232560865,0.45703449795975976,0.5323263919721614,0.07292003605103192,0.7156221479321015],[0.07894749333636215,0.3766416020928676,0.8833103592548823,0.5488022203452967,0.28176501567650497,0.5053049707504523,0.5279028315715562,0.8072118332896003,0.2385192568885151,0.5791896380947485,0.22629499924687466,0.3093767528634167,0.7607103892228888,0.5183917164674552,0.3020662947033787,0.5478961158677078,0.4883624760431673,0.1493664301642602,0.8933274689326515,0.4989266759724488,0.38498027970593585,0.6577137694458386,0.0589664792201648,0.4668960148332452,0.48831780636037836,0.2387101146150373,0.5372087659200433,0.62266545484327,0,0.4412287971217469,0.5627393915768916,0.04333033447110929,0.617313871301249,0.20628362474606335,0.8302117037029382,0.6241883700956524,0.24862613741044076,0.8954457860839254,0.43367131297245765,0.17462866449964604,0.4151726324398837,0.5331939170097948,0.2424847584484765,0.7001683796691603,0.8571810123101818,0.32965618493207954,0.5465942342286506,0.10977983133541999,0.47533519253141815,0.148733732435622,0.4420170141445338,0.3934823326097956,0.8535051794630295,0.11289988006515665,0.44882185339170466,0.5214173067901392,0.32274986683391954,0.17334391269131014,0.17196365594857432,0.41145748303607727,0.7152533081804734,0.7667389218756852,0.4584481691896883,0.5241460067176416,0.3451100740086786,0.46826075602626527,0.2797273384668007,0.4021743239740089,0.0841407224813122,0.039485777479848015,0.07377513112905389,0.16102374809554465,0.19205040996202316,0.3099619644807107,0.4209990769460413,0.6088890323538025,0.6061723727356776,0.36311054701222284,0.1495242188972636,0.7224036019844173,0.20688152735815193,0.16615750635907325,0.48954159179283924,0.7297434321295602,0.6523654038356601,0.6417280707073646,0.32329275150827547,0.7828810105248849,0.6407012986878056,0.46532676160793845],[0.49967604618228106,0.13228468830781936,0.7976532031346911,0.8274458461735165,0.6520432295706129,0.4034440231230226,0.08900625781613114,0.7168152064850652,0.5499853614424953,0.8854451843811915,0.4604796785086305,0.7034528096172772,0.5249494277849873,0.7408439967579074,0.26884153850850484,0.7941935676109666,0.16408933809171675,0.6027479952688294,0.6728375145359038,0.28693197564105466,0.6825867171285451,0.8532098479308117,0.509503679790339,0.7414165699374741,0.6767022637654571,0.3492680682736029,0.22629499924687466,0.8773350616972964,0.4412287971217469,0,0.5711347484617983,0.38633475418371827,0.5231624116242252,0.5953736447146235,0.6239473590551772,0.5805978343380382,0.30738502256137334,0.7708382693257867,0.12492883034281067,0.29693506971838074,0.7363458309308856,0.14308801811799687,0.41827750824603854,0.6693353583865126,0.6956962515531135,0.5382079059764556,0.48877070005230266,0.40934150107303474,0.31607782615452573,0.5908295060573804,0.5510526023693648,0.24286040705166947,0.5957941411567123,0.4792178596207397,0.6858107885740775,0.7140972779048701,0.42016519855533774,0.5384806116984305,0.3586082905303143,0.6733736454989888,0.7408227819878401,0.6190471013585443,0.7551967813622922,0.8287349247302482,0.09213466016454276,0.6509553388518802,0.20471549792716065,0.5110321263383528,0.344788224814829,0.43503736222790945,0.37949725954196434,0.2824266687483803,0.49106079560843696,0.12871118804619508,0.49801345933958013,0.8123740232155865,0.6556025242967393,0.5358990038739336,0.29143361245157856,0.6302091455187676,0.631063949753075,0.5669467550280245,0.037421060387290164,0.7297262065844009,0.5868537932405459,0.8744674705208728,0.40832508958336605,0.7214940277024574,0.9317017993676594,0.2146517900720354],[0.5190294807372209,0.42972132725127277,0.3110600882531345,0.4069711236948547,0.4651126773355543,0.16538700353751712,0.5610589516805708,0.24098920522123055,0.3807832626799007,0.47939981855353997,0.33211304356830834,0.5207704107300287,0.33864436664652303,0.29157025962066785,0.3293478365862792,0.3477454922241462,0.4249255132534188,0.6287952312776304,0.40644509526689726,0.29680079160199463,0.3691223795378386,0.3325115575183237,0.5711347484617983,0.35768573257811564,0.22590666681008004,0.32665432440424985,0.3970327697454945,0.4103025618997107,0.5627393915768916,0.5711347484617983,0,0.5345919490615152,0.11923370772167875,0.48168805594797287,0.3467416841542549,0.06578496147144805,0.3415265692534663,0.3361235253727887,0.437565343014025,0.4268501188117204,0.41972177758829327,0.492024604668684,0.3076246842042541,0.12492883034281067,0.326343245520843,0.2603661703498358,0.08466779968313164,0.4403262981783422,0.2520784350139421,0.5753744691602386,0.1311997349602719,0.31636946093541163,0.4189891370877343,0.4613438057849298,0.28970445200478745,0.24425797531271642,0.22879731600114672,0.44756620183480844,0.3879341266958034,0.3192139193249524,0.16087641669159777,0.2470551693889798,0.3934272257907821,0.44192559478265503,0.5743950195907833,0.21312762973313884,0.4094854210131056,0.15603705394073925,0.5408942657688811,0.5118556354794382,0.5955418781789881,0.5792760606928022,0.3842862078698157,0.487263722217326,0.1304867548675756,0.31110946561988134,0.07567787769739832,0.21800275562591356,0.47388516740224057,0.1702761252137372,0.5497409738700099,0.4949617370321087,0.6045273131507136,0.1613180365695262,0.10125723215338064,0.38443920904400364,0.2306308834438866,0.20941545106955237,0.4917774871911933,0.35778068094756815],[0.11312885724152989,0.32118295851753503,0.8514209394403545,0.5618051840179935,0.3081034702653843,0.46352411943437377,0.4721143519684528,0.7737747794968018,0.2460684702193878,0.5980964620442416,0.2124042991758413,0.3433093591402351,0.7139828936449422,0.5203267138269333,0.2535236953340919,0.554879178802257,0.43334885988477834,0.20377212231645303,0.8491721629227418,0.4487872127756263,0.3972297644801468,0.6584478014196686,0.11081997699719263,0.4770551929640289,0.4833795829080577,0.20055741397070312,0.4832828954643749,0.6327305337278605,0.04333033447110929,0.38633475418371827,0.5345919490615152,0,0.5797457629043515,0.23523929738753324,0.7865456539579969,0.5919568452631124,0.2038459715714135,0.8598013131003324,0.3781743056815147,0.12373851717038063,0.4336068409948782,0.4773684578984919,0.2175865522155026,0.6711330970553773,0.8176388901613959,0.3203775405812904,0.510537398659056,0.09031872334624828,0.4278020095062152,0.1965612525705356,0.4223975701987764,0.3428240304585662,0.8061700238215435,0.12448658794570863,0.4511437738989966,0.5183074261798164,0.29315299531138145,0.19190979690821378,0.1350596188425591,0.41722273052397396,0.6931506752206652,0.7272026521868895,0.4728590128372256,0.5417022488604928,0.2918538693385997,0.46160678161137997,0.22538342772138323,0.3803442159769865,0.03237773255983958,0.04893287134598868,0.054544059864710275,0.11532118127120919,0.19117390820747565,0.25406364884192384,0.39558654225295287,0.6098963784692526,0.5844545883768636,0.34940054750980853,0.09430895511799048,0.6873470396997999,0.2482465366773502,0.19724779563399544,0.4349730870079905,0.704848818103648,0.6185256060359626,0.6483293570237424,0.29184336998572225,0.7520718980217068,0.6576756159522112,0.4122858788457823],[0.5903472302997282,0.39449653729011075,0.2725873106193935,0.5384922132040733,0.5714741828708513,0.11581987487698102,0.4916887488182404,0.1907342407774815,0.4754793031825592,0.61094311249563,0.4080895998771823,0.6299455173622309,0.20692521240526357,0.42305844764098705,0.3342485211638133,0.4795557298135379,0.3569252674452098,0.7084223436456946,0.2883054723112807,0.2254237177107994,0.48946678435649876,0.45944470108030827,0.6391139630786956,0.48605998968207187,0.3561198896467883,0.3668609383895845,0.3137059796752623,0.5416330393181815,0.617313871301249,0.5231624116242252,0.11923370772167875,0.5797457629043515,0,0.5760536837188226,0.22553112436221767,0.063131230932151,0.36717250083937,0.2685688260418746,0.385596885908877,0.45465975431059924,0.5429925779444428,0.415770036459985,0.37125809757137995,0.13907424350799133,0.22888998676553685,0.36160157566722884,0.06033733369025963,0.49757503604279274,0.19587244905793513,0.6589097343989806,0.24428286280014308,0.2857129250689741,0.28963042626242264,0.5334983959603449,0.41684326964945695,0.3759593741563524,0.28881494337138197,0.5338436570275525,0.4333703640100055,0.442452761533751,0.22900908267187312,0.13949509690051404,0.5207764041067378,0.5722781837429829,0.549604525313785,0.3414001735841884,0.40565099089011913,0.2528743017106371,0.5761351368118407,0.5698463868560435,0.6334682085255094,0.5972793206639091,0.46515951646665055,0.46929006779462734,0.2200451305672347,0.44127810078457086,0.19197230352845177,0.32128828606292137,0.49994430389014577,0.10069447996946626,0.6435575961423219,0.582448757478451,0.5479816599846548,0.20553760556354664,0.053149684181629034,0.5145004136668148,0.28509079064363285,0.18658924305601118,0.623535420638849,0.296511379108649],[0.11469506784489797,0.48912762362023493,0.8010942013535213,0.3409664740094258,0.06321556523090514,0.49651500100198803,0.6630718457483927,0.7350129116886563,0.08856498714597114,0.36351021721341364,0.16738700340214682,0.0975189652988062,0.7643397052296055,0.3353894335497849,0.36392644300964355,0.35148732251759673,0.5839242894717483,0.15411183162545777,0.8750042738081769,0.5441708390276834,0.18473932788160913,0.4722330470904181,0.15328540313938568,0.26675538274428273,0.3273790683589803,0.26798843211288936,0.614582731831914,0.4183887776990069,0.20628362474606335,0.5953736447146235,0.48168805594797287,0.23523929738753324,0.5760536837188226,0,0.8112145745236358,0.5564936106986382,0.30419239176517393,0.8304544221087898,0.5421000361644579,0.28595927462456505,0.2021112435556606,0.6446090912987579,0.21672400526834676,0.613322508377995,0.8135705398343858,0.20885325834044824,0.5036728942414296,0.1738588754463721,0.5043968365326819,0.09714104967954129,0.33928083988946084,0.4541874649060056,0.8575705192739266,0.10587890711450186,0.2693521635354671,0.3523905143510225,0.2866009710401497,0.04557015106921173,0.22960368393750272,0.22555796845781248,0.5992887827935574,0.7269346939022912,0.2504430271187013,0.31035811502908406,0.5163469124806684,0.3147329600129278,0.3889941835227499,0.31486964741331946,0.27801652893927603,0.17367022103481566,0.2908758757791361,0.36160157566722884,0.11136256094237866,0.4540573302763787,0.34540484828554807,0.4243113610223697,0.49511286988085607,0.2512317109639019,0.29635622519746596,0.6619685673395549,0.055442134382736166,0.027814848701598265,0.6454306173784358,0.6240528126110583,0.5902570920618605,0.44358936288277306,0.29508101236831924,0.6997376886647291,0.42649353785670824,0.5385850164589934],[0.8148387356977236,0.5309637017624184,0.23884998489293063,0.7607434597169073,0.8093498320962419,0.31315693316516086,0.5572121612554428,0.19428722453799643,0.7114088858715231,0.8325563227149029,0.6385496265204968,0.8680293504626907,0.08913198374032977,0.6464791245181105,0.5235441414969734,0.6996793459050862,0.4481285462597326,0.9360218188520777,0.051376498044967224,0.34844561214526965,0.7260793872327791,0.6552962705513499,0.8607388900789715,0.7167801443805002,0.584133251353991,0.5800317208735934,0.38502650808979266,0.7518419305459504,0.8302117037029382,0.6239473590551772,0.3467416841542549,0.7865456539579969,0.22553112436221767,0.8112145745236358,0,0.2704948801243827,0.5701152589906698,0.17508902282104905,0.498739161839806,0.6530957285688902,0.7783308951341636,0.4790098240946961,0.5973474575881023,0.27778545803596183,0.08397542118981924,0.5994141551250376,0.2958592083139906,0.7157143286856,0.35182957106548757,0.8890262685645826,0.48164925088970567,0.4470518537666329,0.08364396726532157,0.7594982064724377,0.6490882928591353,0.5985203160772615,0.516999211353305,0.7664517342593017,0.6462753787987215,0.6776662280828283,0.372978052736659,0.09403959170906093,0.7527613858836659,0.7989817234400935,0.6830774264219284,0.5724475938863555,0.5784329013555622,0.49086400278500714,0.7748472677451852,0.7863896284268831,0.832423924874691,0.7787834483191002,0.6965126929564361,0.6192140913446417,0.4577894376617193,0.6479277838372955,0.39461430414895987,0.5593847528674962,0.6942188533792675,0.1838261448410032,0.8781393476898386,0.8150550627458324,0.631217892605616,0.33281708202466903,0.23605048787134283,0.7187716309065392,0.511166416129308,0.23930719926521393,0.8366203038616064,0.41363796319848356],[0.5866991235854937,0.4455402336655333,0.24683348920992537,0.4787691732309871,0.5425032972431525,0.1645951147423177,0.5569764867682755,0.17083455196835642,0.45532289135260295,0.5509221441645038,0.4002663259085538,0.5986458460174714,0.27211617025788554,0.36394342204592856,0.3654176791987572,0.4182997644350141,0.4208147287720887,0.6996793459050862,0.32909534463514806,0.288783126657921,0.4474776220510383,0.3882691842906614,0.6378078845601446,0.4338360323965211,0.3010080345156999,0.37984766506518675,0.3824779379845729,0.47551204967002253,0.6241883700956524,0.5805978343380382,0.06578496147144805,0.5919568452631124,0.063131230932151,0.5564936106986382,0.2704948801243827,0,0.38812562247906657,0.2629883503027865,0.44358936288277306,0.47556443948130983,0.49766901560086313,0.48297336889001824,0.37070808361535657,0.07704282137681069,0.24811170680873065,0.33598600089809255,0.08132507575310281,0.5021288075543262,0.2521991746088449,0.6473467640984975,0.20852103887393683,0.3330298636547587,0.3470262327318496,0.529031290366026,0.3667261294331759,0.31607782615452573,0.288942176659159,0.5199426778738935,0.44426157022272345,0.39729020922347386,0.1557904869712623,0.16903098673772585,0.47008544698661026,0.5160083665678461,0.5973422165564567,0.28988415339661183,0.4422630518797022,0.22910167225736244,0.59393650596527,0.5744168028900835,0.6500875996475299,0.6245145938993784,0.45457765131716493,0.51331646805956,0.20015216074574027,0.37330952756107566,0.11986250229006298,0.2938317888399705,0.5222128722728941,0.09298553772337204,0.6245748015699435,0.5678837025836095,0.6088941760184464,0.13731508079093746,0.022847796537658633,0.44604930705888535,0.2883585824476437,0.14827744441854782,0.5589150983973787,0.35714146771203276],[0.25154652525583626,0.1788823150430384,0.645586057158672,0.5088665266636425,0.3467416841542549,0.24751025209613342,0.356310567875603,0.5658812047144351,0.23770329576372573,0.5655716619566632,0.1434161325321359,0.4036053433639157,0.4994763213428687,0.42884599466927187,0.04814909755160542,0.4792178596207397,0.2671212972771692,0.3750616127946341,0.6328692215027597,0.24286040705166947,0.3627807116781748,0.5516987761132515,0.2885284719464211,0.4221697020558364,0.3701906840240836,0.02944155455478172,0.300017775031926,0.5626226985992021,0.24862613741044076,0.30738502256137334,0.3415265692534663,0.2038459715714135,0.36717250083937,0.30419239176517393,0.5701152589906698,0.38812562247906657,0,0.6483390304758172,0.22790851824003927,0.0751332415228504,0.41731940228298137,0.3292449920045981,0.09838616901168568,0.4727075373030367,0.6023998307626891,0.2201138167698741,0.3008755008302292,0.14445742380131163,0.21479239936671984,0.33996150061101915,0.2630811242749017,0.1420788392779068,0.5924114198394047,0.20629822716314095,0.3694802072755989,0.40820356296344645,0.11789358516294897,0.24634018723855938,0.07114553573952676,0.3540856313916512,0.511245753007438,0.5121054824061921,0.4351801630211024,0.508750039571468,0.2609276777389533,0.3446182430664171,0.09065970883493084,0.21850121047984236,0.19637779357680143,0.20879551684536216,0.2538597949824919,0.22516843249560695,0.18460565892753253,0.17565015449987376,0.21924688381116458,0.5073009719993026,0.4071539355987095,0.2241580403937428,0.12146927101932084,0.4775250152882353,0.35644051927884196,0.28693197564105466,0.3552693042350801,0.5154759273752995,0.4112991507339569,0.5639382914433388,0.10941368626816037,0.5489730195177489,0.61300577842759,0.224050010664836],[0.8617559014559439,0.6579569469386928,0.06253824204367764,0.6990192911022244,0.8115870167529425,0.39355317324896105,0.7171613543182256,0.08427276051750623,0.7295151612094362,0.7668004483124643,0.6756858616148399,0.8653535007343214,0.2671555772303671,0.5928867719903785,0.6143941147066394,0.6372128975275239,0.5948213014066058,0.9753108066195187,0.1809410733171461,0.4754793031825592,0.7051929424255968,0.563305849728225,0.9123904927414356,0.6751840692238269,0.5438607098336973,0.6466100706578165,0.537138990714107,0.6717920189825175,0.8954457860839254,0.7708382693257867,0.3361235253727887,0.8598013131003324,0.2685688260418746,0.8304544221087898,0.17508902282104905,0.2629883503027865,0.6483390304758172,0,0.6370702163861717,0.735867620198365,0.7492951200394802,0.6378029695423485,0.6444193624891242,0.21079328371570635,0.07852767169280579,0.6090947457476228,0.336645624555198,0.7742827686283508,0.4613370608964745,0.9228686567456043,0.4792633556640291,0.5570662790210207,0.2652063760472521,0.8041646157598663,0.6150718525105073,0.5466456817438541,0.5619554269554696,0.7953299606536341,0.7126794011770476,0.6521875060067385,0.27259851876226143,0.1391585075281252,0.7130891966541659,0.7444460897748392,0.8142783401869169,0.5400793175563394,0.6828935946449369,0.5039514536450661,0.8572361418142052,0.8467352380336153,0.914482495925011,0.8775074698723095,0.730208370863198,0.7397697787685682,0.47571502888224154,0.5690994784008881,0.34168901172044525,0.5667150404458341,0.7811228995598254,0.16050753972307963,0.8985070193450604,0.843100462046374,0.7857772338288654,0.23184998107335417,0.231640677155594,0.6327255800418284,0.5600996762721555,0.1293205252891776,0.7570307318969149,0.547068515355343],[0.4695884887271128,0.04440521331550748,0.6613949077690943,0.7266233946525756,0.5872855903541911,0.2667096097269719,0.12305701600250003,0.5802258778148945,0.4779096731456429,0.789313045599363,0.38260737447337495,0.6438254977921368,0.4031596399394042,0.6315256679433511,0.17344701924588288,0.6874749084657209,0.04746156022858516,0.5863629794735546,0.5516024638181292,0.15021274708833568,0.5940274149443017,0.7348204675842083,0.49308140880106016,0.6435186195175937,0.5639715586340555,0.26835274096587636,0.11063858501544778,0.769404715597445,0.43367131297245765,0.12492883034281067,0.437565343014025,0.3781743056815147,0.385596885908877,0.5421000361644579,0.498739161839806,0.44358936288277306,0.22790851824003927,0.6370702163861717,0,0.2554982092315148,0.6508059757769218,0.09028766865201379,0.3343038129795156,0.5320623435507212,0.5649022619879344,0.4411090373513511,0.35246932788326724,0.3662286068454792,0.17879883623155446,0.5621334418041596,0.4320495203227116,0.11554583347748432,0.48184324572858367,0.4352372705899344,0.5824863618503369,0.6002753956894462,0.31480131084542007,0.4838949313025943,0.3004571424993679,0.5765422333672974,0.6053193507118918,0.48538642601680726,0.662082293091801,0.7342770801248899,0.17256878395069358,0.538619813651754,0.14512753835536588,0.3954768894205573,0.3456458468533752,0.4119923597897828,0.3945357966943133,0.3110304582174076,0.4249255132534188,0.12670670717228696,0.3777814584533366,0.6966208798100898,0.5235202913421879,0.430926593689716,0.2715205211788,0.493087730318074,0.5893443460953934,0.5208543118768941,0.15432258650837016,0.5930504180185705,0.44932039024722276,0.7621889121278014,0.30224909407790385,0.5840475322549564,0.8303027312951917,0.07782363965293967],[0.20151495098007352,0.1991884636391247,0.733317699685643,0.5472341333253641,0.3433901829337326,0.3334180838220693,0.3668609383895845,0.6536573411890461,0.2463278426497736,0.5969699881394339,0.16786583133192143,0.3938993275687718,0.5783679931214194,0.4805420232079819,0.11769751040231241,0.5258050889273262,0.30628426901351885,0.31915611290284956,0.7152137785498741,0.312449653692356,0.3900375564793954,0.6108815885478162,0.22688299101633294,0.45945824483295766,0.428969080037848,0.09031872334624828,0.35149610213966853,0.6083898943957843,0.17462866449964604,0.29693506971838074,0.4268501188117204,0.12373851717038063,0.45465975431059924,0.28595927462456505,0.6530957285688902,0.47556443948130983,0.0751332415228504,0.735867620198365,0.2554982092315148,0,0.4390682633388972,0.3579014891394704,0.141934133031234,0.5594797550781887,0.6885882065103014,0.2680453865398673,0.3886517647012205,0.10114490436944824,0.2920637804226676,0.29416541245421035,0.3369018087014584,0.20659007125458326,0.6702207743445362,0.1714433915914071,0.4159565544493632,0.4665759041233837,0.19328055973867758,0.22890322254381965,0.055442134382736166,0.39267071916581214,0.5944896542227013,0.5984732357019323,0.46598179901154807,0.5393268807869672,0.22483211278901083,0.40427300510456043,0.09775088572044861,0.29218965769055516,0.10967533029684394,0.145066736509161,0.16738700340214682,0.14116699556108808,0.18533366589174233,0.1555815711102671,0.2983363493570464,0.564437097938481,0.48864316576061245,0.28311927096416983,0.03439198635606771,0.5652674853642419,0.3254366612582525,0.25905147358154934,0.34696400696995133,0.6005361388579439,0.4990391514676131,0.6150718525105073,0.187565681936275,0.636464702936018,0.6497643175306642,0.27854400244746713],[0.3250297977785389,0.6069984241440143,0.7037072374083477,0.12780360690596487,0.12889200590213387,0.5087316444936055,0.7838730088632239,0.6527739079045013,0.18186369253847723,0.1518923219152526,0.26342874900297997,0.14317011149806022,0.7573920158275501,0.16043366998730768,0.465293317261632,0.1518534568066529,0.6777588460298095,0.3573489011132147,0.8387182470831457,0.5992887827935574,0.046021476447336986,0.27885125453904275,0.36776964928515,0.07235773106099702,0.19317185600880762,0.3752347375944561,0.689795322395965,0.20675042002613228,0.4151726324398837,0.7363458309308856,0.41972177758829327,0.4336068409948782,0.5429925779444428,0.2021112435556606,0.7783308951341636,0.49766901560086313,0.41731940228298137,0.7492951200394802,0.6508059757769218,0.4390682633388972,0,0.7464913402581325,0.30645463354027286,0.5261671467659343,0.7555464428307589,0.20266134388532042,0.47992582127016714,0.34692844455688804,0.5508540670242662,0.30433362452499363,0.2872412943488407,0.536300996462152,0.8445748694825711,0.296511379108649,0.12158840792125933,0.1978409882685925,0.33095194801567673,0.23011782699268057,0.37151616565853424,0.08802655813340374,0.4802891493006242,0.679317594133819,0.04111614103693581,0.09635196121540882,0.6759784049829819,0.19729348534364233,0.5190294807372209,0.2915597504791959,0.47161287404393065,0.37444267785398383,0.49571066314388124,0.5518913514094758,0.24336041441855982,0.599189511478139,0.3244991929553687,0.23536823493093834,0.3949674005743025,0.2280546654432787,0.46570117853225035,0.5986458460174714,0.2406738910459309,0.24179462892009596,0.784851747089471,0.5145004136668148,0.5330943389682737,0.23702555938213968,0.3433901829337326,0.6085391632376086,0.2129151262416506,0.6187281796491645],[0.5720595174810978,0.14607705977934748,0.6728002028683657,0.8149430432981167,0.68838757851142,0.31420520172292743,0.06671697336658323,0.5945844290440718,0.578216512845665,0.8797851514550006,0.482411858706169,0.7454925979175968,0.37805158335560013,0.7150776044976948,0.27259851876226154,0.7723954584024242,0.05860842901539664,0.6878538108775685,0.5240566634698153,0.18310886337690271,0.6889630902178692,0.8095792679856241,0.5942737229925578,0.7339816880674802,0.6455812002211652,0.36883545666206113,0.0905048551698775,0.852907028530857,0.5331939170097948,0.14308801811799687,0.492024604668684,0.4773684578984919,0.415770036459985,0.6446090912987579,0.4790098240946961,0.48297336889001824,0.3292449920045981,0.6378029695423485,0.09028766865201379,0.3579014891394704,0.7464913402581325,0,0.4331767895419055,0.5672059448924968,0.5573075256046394,0.5339138529264621,0.39898682506379624,0.46910429036243206,0.22789522772751297,0.6646879953382872,0.5099504482683068,0.19929408144096447,0.4433861053768991,0.5381672786787551,0.6704594994870013,0.680573137388436,0.4056280616610565,0.5864270214650975,0.40325958051361166,0.6680637841161655,0.650338396520346,0.48751946175842464,0.754701154868503,0.8258536345333545,0.23222888843386197,0.6208512916692566,0.24769451846215373,0.4773423601369191,0.44263537019179466,0.5136263725828297,0.4885921429579859,0.39959217494821075,0.5264933839147425,0.21583021865079055,0.455589248749392,0.7742827686283508,0.5801611659001089,0.5197445510897033,0.3715078435875714,0.5130185445571004,0.6922668491174824,0.6237313758212881,0.14018697133409638,0.6322795924861414,0.4815328174319516,0.842394086792223,0.39298610172313186,0.6068281412066132,0.9177010283932372,0.12587833234088347],[0.20645878951961918,0.28830547231128073,0.6290593320019653,0.40007271712079406,0.2458212068700862,0.2742079193171949,0.4655942321798818,0.5541576706605031,0.13397339486612747,0.4551794053244763,0.03824443534707437,0.3052199364006839,0.5415926630940303,0.32679562965259834,0.14827744441854782,0.3739716246135589,0.3672650782402893,0.3260885139425497,0.6613427326874471,0.3152013652693766,0.2517551855836034,0.4563056128548008,0.25565315944512723,0.312803485566425,0.27444186974851914,0.056374852466109224,0.39039267950826306,0.4571161715537586,0.2424847584484765,0.41827750824603854,0.3076246842042541,0.2175865522155026,0.37125809757137995,0.21672400526834676,0.5973474575881023,0.37070808361535657,0.09838616901168568,0.6444193624891242,0.3343038129795156,0.141934133031234,0.30645463354027286,0.4331767895419055,0,0.44510044121652054,0.6127911282979919,0.11441860053170917,0.2987062206601852,0.12010355327217165,0.2750648075174176,0.2797273384668007,0.19293872589541136,0.23020999386137192,0.635395059795584,0.14991802067173496,0.2638106313328543,0.3120068215483288,0.07003163296876852,0.16330977893434875,0.08012667123577112,0.24485461111926315,0.4629598126964974,0.5231027417621692,0.3244991929553687,0.3981549580207729,0.3663888972740075,0.2498712719477825,0.20109655637219112,0.15021274708833568,0.2317453515214912,0.19167522677262144,0.2819387078029554,0.2891964823382755,0.09298553772337204,0.28419822677272,0.16619326290765693,0.40990932094969473,0.354225085239999,0.12918534325089948,0.1832394735508492,0.4713553349605463,0.27810450764488087,0.2103922951148041,0.4662889565921615,0.4754858526557976,0.4002663259085538,0.46172810589960056,0.07384908770585445,0.5282339325487291,0.5039143210704113,0.3152013652693766],[0.6561094485576154,0.5351116433683195,0.17529326455238664,0.4835471298461088,0.5902199723996098,0.25377580982087,0.6425580885842848,0.11401538899987493,0.5133103896749498,0.5535481830032353,0.46929006779462734,0.6429483216156835,0.3089992731734178,0.3735827801272471,0.45320027507903554,0.4215811027605217,0.507054966882721,0.7642532940233105,0.3266543244042498,0.3750203812085681,0.4817672734848879,0.36560367034195174,0.7084179099622487,0.4534541276183384,0.321173381638194,0.46126286078767004,0.4653735797616898,0.4658548720369017,0.7001683796691603,0.6693353583865126,0.12492883034281067,0.6711330970553773,0.13907424350799133,0.613322508377995,0.27778545803596183,0.07704282137681069,0.4727075373030367,0.21079328371570635,0.5320623435507212,0.5594797550781887,0.5261671467659343,0.5672059448924968,0.44510044121652054,0,0.22569214358336495,0.392134004866845,0.17097389329469787,0.5777455939926287,0.3406408499281364,0.7100874808676513,0.2616162889375983,0.4227061045192544,0.3672398320956843,0.5984732357019323,0.3920076156930327,0.3263998265475091,0.36557831329898155,0.5822445779822246,0.5239494319364355,0.42875909021495756,0.08764475016670448,0.17144339159140706,0.4911877179278062,0.5265467493826256,0.6870181269948448,0.3166996681654176,0.530893124861423,0.29190636067350406,0.6758530444744622,0.649378102247878,0.7311760598136297,0.7101228676401268,0.5205606001037324,0.6028311098990012,0.26788588500512184,0.36160157566722884,0.1189424814094391,0.34992998039399287,0.6063944823649015,0.08227290567888028,0.6810710316525004,0.6289796149365255,0.6966163723539933,0.055442134382736166,0.07336723325605857,0.43069589820837967,0.36668399180906314,0.07377513112905389,0.5512907525217963,0.44466721667145664],[0.8318789839584889,0.5906811545772205,0.14421303598907712,0.7214853181986429,0.8028210167954778,0.3425271142329737,0.6364597777476286,0.11532118127120916,0.7124501672698822,0.7917808537869064,0.6490496420169426,0.8593174810465377,0.17779423624555488,0.6102506177177355,0.5624615122276235,0.6595758820987764,0.5189753606637446,0.9496198935588147,0.10035548341847077,0.40649849055952836,0.7070343775754562,0.6005361388579439,0.8805585980232605,0.6871826026706278,0.5538135035982139,0.6059605195160115,0.45877379898501947,0.7035644118812859,0.8571810123101818,0.6956962515531135,0.326343245520843,0.8176388901613959,0.22888998676553685,0.8135705398343858,0.08397542118981924,0.24811170680873065,0.6023998307626891,0.07852767169280579,0.5649022619879344,0.6885882065103014,0.7555464428307589,0.5573075256046394,0.6127911282979919,0.22569214358336495,0,0.5949265483692536,0.3016088310569244,0.7383961133835393,0.39935945332789,0.8995169695374408,0.46909765412911325,0.4961695428740423,0.17607414347973577,0.7749934029951518,0.62266545484327,0.5626060262414163,0.5303281793974963,0.773591823062772,0.6727022500764058,0.655851252156281,0.30984302442104794,0.07782363965293967,0.7244189317400405,0.7635451830275845,0.7459815981156331,0.5459478788585375,0.6255373517984515,0.4866302035305023,0.8108691390746912,0.8104808364068748,0.8685446798614241,0.8238266220011732,0.7056860110588491,0.6757415937460978,0.4555277951080538,0.5993932615199188,0.3543470638876806,0.5531584443866542,0.7322712542809218,0.14431491048772693,0.8814779846013707,0.8220704921649227,0.7074773527471303,0.2680795536495578,0.21291512624165057,0.6673636398112434,0.5265882522063375,0.16551266131127484,0.789093760318778,0.47626461352497507],[0.2645036147338623,0.40146468002756047,0.5800317208735934,0.2766052303280234,0.19729348534364233,0.3024114933703521,0.5759613565871008,0.5135291672835837,0.10854625320747743,0.3361235253727887,0.09611705776505833,0.25635527326575736,0.5631781676286612,0.19989660488691438,0.2588160362872214,0.2472274565687174,0.464309005480704,0.3620711158092146,0.6625038588516121,0.3844794627135369,0.14411619389202407,0.33174191890439125,0.3181428652674139,0.19090708052684058,0.15171735655417234,0.17993104757682418,0.4745352598048642,0.3305236759942278,0.32965618493207954,0.5382079059764556,0.2603661703498358,0.3203775405812904,0.36160157566722884,0.20885325834044824,0.5994141551250376,0.33598600089809255,0.2201138167698741,0.6090947457476228,0.4411090373513511,0.2680453865398673,0.20266134388532042,0.5339138529264621,0.11441860053170917,0.392134004866845,0.5949265483692536,0,0.29117065669104025,0.21746154439431373,0.33664562455519803,0.30664493337938065,0.11789358516294897,0.32252102074151257,0.6542855941222555,0.2097894568192497,0.1371230864388541,0.18820339272458095,0.11614299018722574,0.1795488402108593,0.20282461639344548,0.12317476017133182,0.384857647954512,0.5100238531138764,0.20840536723845118,0.280589902778436,0.4922842644328266,0.12889200590213387,0.3231975720575609,0.09620520596605628,0.34411677309941124,0.27791752105351014,0.3874629766270589,0.4101286735154783,0.1272333783232338,0.40832508958336605,0.12898232825909223,0.2845103911602788,0.2777083935362986,0.029744325851248074,0.30696518225268904,0.4416090010751298,0.27683724332195053,0.2248994148240407,0.584823912297795,0.40630013088235784,0.37025748454754964,0.3346998134221403,0.12871118804619508,0.47851538656922404,0.3808563895045332,0.4039661670735558],[0.5177230469520632,0.3521101505405377,0.3324467145152702,0.4874427536283067,0.501065722594637,0.07347866972641956,0.47042970460238953,0.252368117626307,0.4033518120405202,0.5596306085267682,0.3351137496051187,0.5600829304678612,0.2648264146926029,0.3727458507233051,0.27367245764032105,0.4309121787373459,0.33386123141184026,0.6354937182680809,0.359279367286634,0.20323966193660087,0.4248250413977678,0.42740261151400444,0.566808840843679,0.4283823063620324,0.30294884413298007,0.2973375550663742,0.3017613928965303,0.4989266759724488,0.5465942342286506,0.48877070005230266,0.08466779968313164,0.510537398659056,0.06033733369025963,0.5036728942414296,0.2958592083139906,0.08132507575310281,0.3008755008302292,0.336645624555198,0.35246932788326724,0.3886517647012205,0.47992582127016714,0.39898682506379624,0.2987062206601852,0.17097389329469787,0.3016088310569244,0.29117065669104025,0,0.4261220948029704,0.16212477472733375,0.5859305168102192,0.18008040064728212,0.2392691297625194,0.3529593414453835,0.4607566409809151,0.3582981533218519,0.32736966600076084,0.2161378516499953,0.46096594410350367,0.3634082141390643,0.38010822907255065,0.2406738910459309,0.21246111498392195,0.4615663332841383,0.5174034747735938,0.5034065747674273,0.2853161962305625,0.349259234600227,0.18310886337690271,0.5090258879018036,0.49851405408030014,0.565969615086536,0.5349073280496242,0.3921892877224276,0.41938891319708677,0.1496818542510739,0.4029289161153031,0.1720848401303281,0.25180052473784553,0.4347158937795877,0.1643604696003534,0.5710361660150434,0.5095832692722183,0.5187588252518205,0.22843953793986424,0.09844374188672811,0.47603569503790033,0.21280170914370025,0.23820083797459732,0.5778917814105783,0.2682161805233325],[0.09463725859697154,0.3108723855280393,0.7610740869140052,0.46822086740468294,0.23639733208155927,0.38991646532948304,0.4806003603143255,0.6853345970057718,0.15328540313938568,0.5099015059759268,0.10949223832991004,0.2832165381166392,0.6512347020936984,0.41980310546967126,0.2040821200840732,0.45689834373292915,0.41382541366101694,0.217961169087966,0.7793164825760106,0.39990226622719866,0.30476953593497996,0.5571111698407317,0.13327396806087075,0.3818301184710569,0.3807995142599612,0.12373851717038063,0.4534541276183384,0.5364407509847111,0.10977983133541999,0.40934150107303474,0.4403262981783422,0.09031872334624828,0.49757503604279274,0.1738588754463721,0.7157143286856,0.5021288075543262,0.14445742380131163,0.7742827686283508,0.3662286068454792,0.10114490436944824,0.34692844455688804,0.46910429036243206,0.12010355327217165,0.5777455939926287,0.7383961133835393,0.21746154439431373,0.4261220948029704,0,0.3698565064140727,0.18499426302508903,0.3218431009961307,0.29849051583552544,0.7448133762244982,0.05765987172583289,0.35110080935345045,0.41606096907747947,0.20055741397070312,0.11850442938919972,0.06073052661105498,0.3193872782067499,0.5942526524177687,0.6481068285387868,0.38137601107707236,0.4526028328253401,0.33040254569388416,0.3587976913468158,0.20914174032176747,0.2809385747396858,0.11720602817139941,0.05980975727826619,0.15735857516817506,0.19317185600880762,0.0935891349268098,0.2682161805233325,0.29879861985115835,0.508750039571468,0.4852451829286228,0.24673490387116326,0.11094937970543353,0.6011458450206738,0.21177837595750476,0.14535027826803748,0.45940406749081475,0.6078594423921655,0.5307284097762368,0.5497466585080834,0.2015895783176093,0.6605311272705325,0.5670680923698206,0.378190665746772],[0.4754400044975257,0.1865410979775116,0.4773880303075513,0.5965503033275906,0.5269083095414087,0.07600305323655732,0.296511379108649,0.39543772055416193,0.41600130669014396,0.6652965949308812,0.32468879048807026,0.5875519767193458,0.27366129153963287,0.48954159179283924,0.16174020616330387,0.5482382140537443,0.1602118713703004,0.5993305764245478,0.41256415834674565,0.037929339138543086,0.49220986339676703,0.5733430132708212,0.5152761242333552,0.522045483173376,0.418292345833072,0.2351748034589189,0.13892666874981643,0.6256174987936146,0.47533519253141815,0.31607782615452573,0.2520784350139421,0.4278020095062152,0.19587244905793513,0.5043968365326819,0.35182957106548757,0.2521991746088449,0.21479239936671984,0.4613370608964745,0.17879883623155446,0.2920637804226676,0.5508540670242662,0.22789522772751297,0.2750648075174176,0.3406408499281364,0.39935945332789,0.33664562455519803,0.16212477472733375,0.3698565064140727,0,0.5597702521982478,0.28072070332727594,0.08417374887214804,0.3657557769163398,0.42527607067624507,0.45411212822687985,0.4509300360910407,0.2135944