"trial_id","rt","stimulus","response","trial_type","trial_index","plugin_version","time_elapsed","participant_number","success","raw_payload","placements","dissimilarity_vector","n_words","trial_category","distance_matrix","value"
"consent_form","2492","
    <div style=""max-width:800px; margin:0 auto; text-align:left; font-size: 16px; padding: 10px 0;"">
      <h1>Informed Consent Form</h1>
      <p>You are being invited to participate in a research study titled <strong>""Reproducibility of Psychological Science and Instruction.""</strong> This study is being done by Dr. Bria Long from UC San Diego and associated graduate students in the Experimental Methods course. You were selected to participate in this study because you are an adult in the U.S. and have been a represented population in previous psychology studies.</p>
      
      <p>The purpose of this study is to better understand how well previously published studies in the psychological field replicate online and with different populations. Your participation in this research should last approximately <strong>5-30 minutes</strong>. If you agree to take part in this study, you may be asked to view a set of stimuli, including pictures, sounds, written text, or videos and then giving some responses via key-presses, verbally, or with paper-and-pencil. We may also observe your choices or preferences among an array of stimuli. These stimuli will be taken directly from or closely adapted from studies that already exist in the published psychological literature. Stimuli will include, e.g., pictures of objects and human faces, audio and video clips, short text passages, etc. None of the stimuli will be disturbing, threatening, or offensive. The online and in-person experiments described in this protocol will take no more than 30 minutes. An example game you might play would be to click on an image on the screen that matches a word you hear being said out loud. Your total expected time commitment for this study is between 5-30 minutes, and is specified in the study description.</p>
      
      <p>Your participation in this study is completely voluntary and you can withdraw at any time. Choosing not to participate or withdrawing will result in no penalty or loss of benefits to which you are entitled. You are free to skip any question that you choose.</p>
      
      <p>We will not be asking for any personally identifying information, and we will handle responses as confidentially as possible. Your SONA or Prolific IDs will never be tied to your responses on this survey. However, we cannot guarantee the confidentiality of information transmitted over the Internet. To minimize this risk, data containing anything that might be personally identifying (e.g. Prolific IDs or IP addresses) will be encrypted on transfer and storage and will only be accessible to qualified lab personnel. We will be keeping data collected as part of this experiment indefinitely. This anonymized data (containing neither Prolific IDs nor IP addresses) may be shared with the scientific community or with other participants to be used as stimuli in future studies.</p>
      
      <p>If you have questions about this project or if you have a research-related problem, you may contact the researcher(s), <strong>Dr. Bria Long, <a href=""mailto:brlong@ucsd.edu"">brlong@ucsd.edu</a></strong>. If you have any questions concerning your rights as a research subject, you may contact the UC San Diego Office of IRB Administration at <a href=""mailto:irb@ucsd.edu"">irb@ucsd.edu</a> or 858-246-4777.</p>
      
      <h3 style=""margin-top: 25px;"">Consent Statement</h3>
      <p style=""font-weight: bold;"">By participating in this research you are indicating that you are at least 18 years old, have read this consent form, and agree to participate in this research study. Please keep this consent form for your records.</p>
    </div>
  ","0","html-button-response","0","2.1.0","2496","vgqc6rboes_f8tyez","","","","","","","",""
"","30917","","{""participant_date"":""11252025"",""participant_time"":""4:05PM""}","survey-html-form","1","2.1.0","33416","vgqc6rboes_f8tyez","","","","","","","",""
"","5018","
    <div style=""display:flex; align-items:center; justify-content:center; height:100vh; font-family:sans-serif;"">
      <div style=""max-width:900px; margin:0 auto; text-align:center;"">
        <h1 style= ""font-size: 24px;"">Welcome! Thank you for participating in the study.</h1>
        <h2 style= ""font-size: 22px;"">The study will be in Madarin Chinese.</h2>
        <h2 style= ""font-size: 22px;"">Please use desktop computers or laptops for the study. Tablets and phones are not allowed.</h2>
        <p style=""font-size:16px; margin-top:30px;""><em>Press any key to continue.</em></p>
      </div>
    </div>
  ","ArrowDown","html-keyboard-response","2","2.1.0","38435","vgqc6rboes_f8tyez","","","","","","","",""
"","31428","
    <div style=""display:flex; align-items:center; justify-content:center; height:100vh; font-family:sans-serif;"">
      <div style=""max-width:900px; margin:0 auto; text-align:center;"">
        <p style=""font-size:18px; line-height:1.6;"">
          In this task, you will be presented with <strong>90 words</strong> arranged <strong>outside a circle</strong>.<br>
          Your job is to <strong>drag these words into the circle</strong> and <strong>rearrange them</strong> based on their <strong>meaning similarity</strong>.<br><br>
          Words that are <strong>similar in meaning</strong> should be placed <strong>closer together</strong>.<br>
          Words that are <strong>different in meaning</strong> should be placed <strong>farther apart</strong>.<br><br>
          You can place the words <strong>anywhere inside the circle</strong>. There is no single correct answer — 
          we are interested in <strong>your personal judgment</strong> of how these words relate to each other.<br><br>
          <strong>You must move all words into the circle before you can finish.</strong><br>
          After the initial arrangement, you will arrange words from specific categories.
        </p>
        <p style=""font-size:16px; margin-top:30px;""><em>Press any key to continue.</em></p>
      </div>
    </div>
  ","ArrowDown","html-keyboard-response","3","2.1.0","69866","vgqc6rboes_f8tyez","","","","","","","",""
"","2211","","","fullscreen","4","2.1.0","73083","vgqc6rboes_f8tyez","true","{""placements"":[{""word"":""骄傲"",""x"":73,""y"":325.5,""cx"":92,""cy"":342.5,""angle_rad"":-3.113,""angle_deg"":181.7},{""word"":""冰箱"",""x"":516,""y"":431.5,""cx"":535,""cy"":448.5,""angle_rad"":0.489,""angle_deg"":28},{""word"":""兔子"",""x"":104,""y"":487.5,""cx"":123,""cy"":504.5,""angle_rad"":2.544,""angle_deg"":145.8},{""word"":""反感"",""x"":64,""y"":309.5,""cx"":83,""cy"":326.5,""angle_rad"":-3.054,""angle_deg"":185},{""word"":""协议"",""x"":283,""y"":423.5,""cx"":302,""cy"":440.5,""angle_rad"":2.058,""angle_deg"":117.9},{""word"":""嘴唇"",""x"":205,""y"":582.5,""cx"":224,""cy"":599.5,""angle_rad"":2.038,""angle_deg"":116.8},{""word"":""剪刀"",""x"":528,""y"":415.5,""cx"":547,""cy"":432.5,""angle_rad"":0.397,""angle_deg"":22.7},{""word"":""长颈鹿"",""x"":71,""y"":486.5,""cx"":97,""cy"":503.5,""angle_rad"":2.596,""angle_deg"":148.8},{""word"":""制度"",""x"":290,""y"":412.5,""cx"":309,""cy"":429.5,""angle_rad"":2.047,""angle_deg"":117.3},{""word"":""过失"",""x"":510,""y"":270.5,""cx"":529,""cy"":287.5,""angle_rad"":-0.336,""angle_deg"":340.8},{""word"":""友情"",""x"":400,""y"":192.5,""cx"":419,""cy"":209.5,""angle_rad"":-1.114,""angle_deg"":296.2},{""word"":""方法"",""x"":423,""y"":379.5,""cx"":442,""cy"":396.5,""angle_rad"":0.468,""angle_deg"":26.8},{""word"":""蚂蚁"",""x"":98,""y"":482.5,""cx"":117,""cy"":499.5,""angle_rad"":2.571,""angle_deg"":147.3},{""word"":""沮丧"",""x"":72,""y"":324.5,""cx"":91,""cy"":341.5,""angle_rad"":-3.109,""angle_deg"":181.9},{""word"":""沙发"",""x"":517,""y"":437.5,""cx"":536,""cy"":454.5,""angle_rad"":0.512,""angle_deg"":29.3},{""word"":""暴力"",""x"":545,""y"":290.5,""cx"":564,""cy"":307.5,""angle_rad"":-0.196,""angle_deg"":348.8},{""word"":""筷子"",""x"":504,""y"":443.5,""cx"":523,""cy"":460.5,""angle_rad"":0.568,""angle_deg"":32.6},{""word"":""概念"",""x"":362,""y"":315.5,""cx"":381,""cy"":332.5,""angle_rad"":-0.514,""angle_deg"":330.6},{""word"":""麻雀"",""x"":86,""y"":485.5,""cx"":105,""cy"":502.5,""angle_rad"":2.585,""angle_deg"":148.1},{""word"":""椅子"",""x"":514,""y"":405.5,""cx"":533,""cy"":422.5,""angle_rad"":0.377,""angle_deg"":21.6},{""word"":""买卖"",""x"":387,""y"":533.5,""cx"":406,""cy"":550.5,""angle_rad"":1.298,""angle_deg"":74.4},{""word"":""魔力"",""x"":234,""y"":62.5,""cx"":253,""cy"":79.5,""angle_rad"":-1.915,""angle_deg"":250.3},{""word"":""结果"",""x"":367,""y"":314.5,""cx"":386,""cy"":331.5,""angle_rad"":-0.475,""angle_deg"":332.8},{""word"":""敌意"",""x"":552,""y"":259.5,""cx"":571,""cy"":276.5,""angle_rad"":-0.321,""angle_deg"":341.6},{""word"":""纠纷"",""x"":308,""y"":424.5,""cx"":327,""cy"":441.5,""angle_rad"":1.817,""angle_deg"":104.1},{""word"":""关系"",""x"":304,""y"":498.5,""cx"":323,""cy"":515.5,""angle_rad"":1.733,""angle_deg"":99.3},{""word"":""铅笔"",""x"":501,""y"":433.5,""cx"":520,""cy"":450.5,""angle_rad"":0.534,""angle_deg"":30.6},{""word"":""愤怒"",""x"":53,""y"":319.5,""cx"":72,""cy"":336.5,""angle_rad"":-3.093,""angle_deg"":182.8},{""word"":""团队"",""x"":480,""y"":175.5,""cx"":499,""cy"":192.5,""angle_rad"":-0.813,""angle_deg"":313.4},{""word"":""洗衣机"",""x"":492,""y"":439.5,""cx"":518,""cy"":456.5,""angle_rad"":0.565,""angle_deg"":32.4},{""word"":""大腿"",""x"":200,""y"":583.5,""cx"":219,""cy"":600.5,""angle_rad"":2.053,""angle_deg"":117.6},{""word"":""慈善"",""x"":254,""y"":80.5,""cx"":273,""cy"":97.5,""angle_rad"":-1.867,""angle_deg"":253},{""word"":""手指"",""x"":203,""y"":584.5,""cx"":222,""cy"":601.5,""angle_rad"":2.042,""angle_deg"":117},{""word"":""性质"",""x"":388,""y"":311.5,""cx"":407,""cy"":328.5,""angle_rad"":-0.361,""angle_deg"":339.3},{""word"":""猫"",""x"":99,""y"":486.5,""cx"":111,""cy"":503.5,""angle_rad"":2.571,""angle_deg"":147.3},{""word"":""眼睛"",""x"":208,""y"":592.5,""cx"":227,""cy"":609.5,""angle_rad"":2.013,""angle_deg"":115.4},{""word"":""床"",""x"":511,""y"":430.5,""cx"":523,""cy"":447.5,""angle_rad"":0.513,""angle_deg"":29.4},{""word"":""鼠标"",""x"":505,""y"":419.5,""cx"":524,""cy"":436.5,""angle_rad"":0.461,""angle_deg"":26.4},{""word"":""微波炉"",""x"":504,""y"":430.5,""cx"":530,""cy"":447.5,""angle_rad"":0.496,""angle_deg"":28.4},{""word"":""原因"",""x"":374,""y"":317.5,""cx"":393,""cy"":334.5,""angle_rad"":-0.346,""angle_deg"":340.2},{""word"":""锤子"",""x"":501,""y"":419.5,""cx"":520,""cy"":436.5,""angle_rad"":0.471,""angle_deg"":27},{""word"":""勺子"",""x"":527,""y"":415.5,""cx"":546,""cy"":432.5,""angle_rad"":0.398,""angle_deg"":22.8},{""word"":""缘分"",""x"":109,""y"":160.5,""cx"":128,""cy"":177.5,""angle_rad"":-2.481,""angle_deg"":217.8},{""word"":""胳膊"",""x"":207,""y"":575.5,""cx"":226,""cy"":592.5,""angle_rad"":2.043,""angle_deg"":117.1},{""word"":""老鼠"",""x"":94,""y"":489.5,""cx"":113,""cy"":506.5,""angle_rad"":2.558,""angle_deg"":146.6},{""word"":""兴奋"",""x"":91,""y"":319.5,""cx"":110,""cy"":336.5,""angle_rad"":-3.085,""angle_deg"":183.2},{""word"":""耳朵"",""x"":214,""y"":578.5,""cx"":233,""cy"":595.5,""angle_rad"":2.016,""angle_deg"":115.5},{""word"":""社会"",""x"":153,""y"":392.5,""cx"":172,""cy"":409.5,""angle_rad"":2.819,""angle_deg"":161.5},{""word"":""牙刷"",""x"":497,""y"":439.5,""cx"":516,""cy"":456.5,""angle_rad"":0.57,""angle_deg"":32.7},{""word"":""过程"",""x"":364,""y"":317.5,""cx"":383,""cy"":334.5,""angle_rad"":-0.439,""angle_deg"":334.8},{""word"":""光彩"",""x"":179,""y"":173.5,""cx"":198,""cy"":190.5,""angle_rad"":-2.332,""angle_deg"":226.4},{""word"":""空调"",""x"":501,""y"":443.5,""cx"":520,""cy"":460.5,""angle_rad"":0.576,""angle_deg"":33},{""word"":""乌龟"",""x"":87,""y"":485.5,""cx"":106,""cy"":502.5,""angle_rad"":2.583,""angle_deg"":148},{""word"":""地位"",""x"":159,""y"":395.5,""cx"":178,""cy"":412.5,""angle_rad"":2.793,""angle_deg"":160},{""word"":""创伤"",""x"":293,""y"":207.5,""cx"":312,""cy"":224.5,""angle_rad"":-1.865,""angle_deg"":253.2},{""word"":""死亡"",""x"":296,""y"":217.5,""cx"":315,""cy"":234.5,""angle_rad"":-1.865,""angle_deg"":253.1},{""word"":""快乐"",""x"":52,""y"":316.5,""cx"":71,""cy"":333.5,""angle_rad"":-3.083,""angle_deg"":183.4},{""word"":""身份"",""x"":149,""y"":389.5,""cx"":168,""cy"":406.5,""angle_rad"":2.841,""angle_deg"":162.8},{""word"":""婚姻"",""x"":198,""y"":289.5,""cx"":217,""cy"":306.5,""angle_rad"":-2.825,""angle_deg"":198.1},{""word"":""错误"",""x"":189,""y"":294.5,""cx"":208,""cy"":311.5,""angle_rad"":-2.877,""angle_deg"":195.2},{""word"":""脚踝"",""x"":183,""y"":582.5,""cx"":202,""cy"":599.5,""angle_rad"":2.106,""angle_deg"":120.7},{""word"":""老虎"",""x"":93,""y"":490.5,""cx"":112,""cy"":507.5,""angle_rad"":2.557,""angle_deg"":146.5},{""word"":""冷漠"",""x"":524,""y"":287.5,""cx"":543,""cy"":304.5,""angle_rad"":-0.232,""angle_deg"":346.7},{""word"":""疾病"",""x"":298,""y"":206.5,""cx"":317,""cy"":223.5,""angle_rad"":-1.826,""angle_deg"":255.4},{""word"":""扫帚"",""x"":509,""y"":414.5,""cx"":528,""cy"":431.5,""angle_rad"":0.429,""angle_deg"":24.6},{""word"":""难过"",""x"":49,""y"":330.5,""cx"":68,""cy"":347.5,""angle_rad"":-3.133,""angle_deg"":180.5},{""word"":""钥匙"",""x"":507,""y"":439.5,""cx"":526,""cy"":456.5,""angle_rad"":0.544,""angle_deg"":31.2},{""word"":""天堂"",""x"":469,""y"":101.5,""cx"":488,""cy"":118.5,""angle_rad"":-1.033,""angle_deg"":300.8},{""word"":""义务"",""x"":289,""y"":405.5,""cx"":308,""cy"":422.5,""angle_rad"":2.096,""angle_deg"":120.1},{""word"":""数据"",""x"":479,""y"":172.5,""cx"":498,""cy"":189.5,""angle_rad"":-0.826,""angle_deg"":312.7},{""word"":""爱心"",""x"":249,""y"":75.5,""cx"":268,""cy"":92.5,""angle_rad"":-1.879,""angle_deg"":252.3},{""word"":""内容"",""x"":376,""y"":312.5,""cx"":395,""cy"":329.5,""angle_rad"":-0.427,""angle_deg"":335.5},{""word"":""现象"",""x"":374,""y"":314.5,""cx"":393,""cy"":331.5,""angle_rad"":-0.406,""angle_deg"":336.7},{""word"":""柜子"",""x"":498,""y"":430.5,""cx"":517,""cy"":447.5,""angle_rad"":0.528,""angle_deg"":30.3},{""word"":""奇迹"",""x"":243,""y"":74.5,""cx"":262,""cy"":91.5,""angle_rad"":-1.899,""angle_deg"":251.2},{""word"":""恐惧"",""x"":80,""y"":286.5,""cx"":99,""cy"":303.5,""angle_rad"":-2.958,""angle_deg"":190.5},{""word"":""膝盖"",""x"":212,""y"":590.5,""cx"":231,""cy"":607.5,""angle_rad"":2.004,""angle_deg"":114.8},{""word"":""舒心"",""x"":56,""y"":299.5,""cx"":75,""cy"":316.5,""angle_rad"":-3.02,""angle_deg"":186.9},{""word"":""债务"",""x"":515,""y"":254.5,""cx"":534,""cy"":271.5,""angle_rad"":-0.403,""angle_deg"":336.9},{""word"":""大象"",""x"":92,""y"":492.5,""cx"":111,""cy"":509.5,""angle_rad"":2.553,""angle_deg"":146.3},{""word"":""作用"",""x"":282,""y"":405.5,""cx"":301,""cy"":422.5,""angle_rad"":2.165,""angle_deg"":124.1},{""word"":""纪律"",""x"":272,""y"":412.5,""cx"":291,""cy"":429.5,""angle_rad"":2.209,""angle_deg"":126.6},{""word"":""电视"",""x"":499,""y"":422.5,""cx"":518,""cy"":439.5,""angle_rad"":0.489,""angle_deg"":28},{""word"":""肩膀"",""x"":215,""y"":579.5,""cx"":234,""cy"":596.5,""angle_rad"":2.011,""angle_deg"":115.2},{""word"":""鼻子"",""x"":207,""y"":579.5,""cx"":226,""cy"":596.5,""angle_rad"":2.037,""angle_deg"":116.7},{""word"":""斧头"",""x"":522,""y"":437.5,""cx"":541,""cy"":454.5,""angle_rad"":0.501,""angle_deg"":28.7},{""word"":""风景"",""x"":471,""y"":566.5,""cx"":490,""cy"":583.5,""angle_rad"":1.031,""angle_deg"":59.1},{""word"":""熊猫"",""x"":89,""y"":488.5,""cx"":108,""cy"":505.5,""angle_rad"":2.57,""angle_deg"":147.3},{""word"":""骗局"",""x"":533,""y"":272.5,""cx"":552,""cy"":289.5,""angle_rad"":-0.291,""angle_deg"":343.3},{""word"":""桌子"",""x"":533,""y"":413.5,""cx"":552,""cy"":430.5,""angle_rad"":0.379,""angle_deg"":21.7}],""n_words"":90,""words"":[""骄傲"",""冰箱"",""兔子"",""反感"",""协议"",""嘴唇"",""剪刀"",""长颈鹿"",""制度"",""过失"",""友情"",""方法"",""蚂蚁"",""沮丧"",""沙发"",""暴力"",""筷子"",""概念"",""麻雀"",""椅子"",""买卖"",""魔力"",""结果"",""敌意"",""纠纷"",""关系"",""铅笔"",""愤怒"",""团队"",""洗衣机"",""大腿"",""慈善"",""手指"",""性质"",""猫"",""眼睛"",""床"",""鼠标"",""微波炉"",""原因"",""锤子"",""勺子"",""缘分"",""胳膊"",""老鼠"",""兴奋"",""耳朵"",""社会"",""牙刷"",""过程"",""光彩"",""空调"",""乌龟"",""地位"",""创伤"",""死亡"",""快乐"",""身份"",""婚姻"",""错误"",""脚踝"",""老虎"",""冷漠"",""疾病"",""扫帚"",""难过"",""钥匙"",""天堂"",""义务"",""数据"",""爱心"",""内容"",""现象"",""柜子"",""奇迹"",""恐惧"",""膝盖"",""舒心"",""债务"",""大象"",""作用"",""纪律"",""电视"",""肩膀"",""鼻子"",""斧头"",""风景"",""熊猫"",""骗局"",""桌子""],""distance_matrix"":[[0,0.8136442810871914,0.293480332346547,0.03107308516846412,0.4130673983013968,0.5154219730388963,0.8285215059315337,0.2865670994998933,0.41673595119423,0.7866883238002412,0.6301647377323064,0.6321848923875045,0.28280838326591234,0.0007415151372901692,0.8179462057854389,0.8454927214534189,0.7981701115749177,0.515880285894021,0.285581849720192,0.8005621895395199,0.672467166169903,0.5502403962585468,0.5248897967406411,0.8638056899691008,0.4547081890276524,0.5148547132302904,0.7884219372076577,0.03558979432460968,0.7747191280104858,0.7876591291940107,0.512999798555106,0.5435116260752352,0.516993410700978,0.5626719018124859,0.28842820303975325,0.5338105891035204,0.7923420234038977,0.7896619567734728,0.8045226176754348,0.537243054451085,0.7826664563934069,0.8267654285326449,0.30053762202875595,0.5059890451527708,0.29419579905169374,0.032176023658736355,0.5167122631672455,0.1850153441581904,0.7842010229861072,0.5193478319836737,0.32994830522138413,0.7929914752174738,0.2857323602819358,0.1967176503748584,0.4451232132237344,0.4417726426209464,0.03911054454710066,0.17607801170334905,0.23107723748946282,0.2131576989605313,0.4986560507651983,0.29575084570565147,0.8084399562744125,0.4538649810333188,0.7948220084796906,0.04209652577479952,0.80150226527069,0.8126749380685278,0.4105569375732211,0.7749172034367904,0.5455354299049964,0.5411321330851241,0.5374124696970687,0.7819103140443425,0.5409048299757178,0.06914236753686712,0.533906315431222,0.053820652321095515,0.7996110138682919,0.2990978691205531,0.39882943290923817,0.38701196226244455,0.7803446204585651,0.5191479354210623,0.5123114410233275,0.826628108437082,0.8311419470581121,0.2914109082257168,0.827138592137313,0.8366239484030996],[0.8136442810871914,0,0.7425442115892867,0.8363257504424318,0.4155665977177221,0.6171086122892009,0.0340133421218666,0.7884645191363331,0.4042168246714554,0.28662821863019877,0.4737938987524464,0.18895388542689526,0.7520524496984518,0.8158029725392212,0.00909903899301251,0.25590811673158104,0.028590116560141637,0.3433564806515155,0.7740316619277627,0.04489190026092351,0.2926107688658862,0.8296015113629062,0.3373524946387439,0.3127921740456544,0.3707772139326857,0.3962291780011605,0.025300101217532272,0.8509670248096145,0.46100405388561266,0.03184417564964692,0.6259466885000587,0.7823089123800646,0.6218953926769522,0.31230280530246723,0.7636037124469143,0.6203699993806284,0.0197663965252321,0.02735177642914532,0.007337965951580979,0.3241988403925797,0.03259798020463118,0.03296875271312213,0.8735490941055115,0.6084917902230318,0.7607659236477718,0.7850099527476582,0.599487778196088,0.6517834078051571,0.03511524574325079,0.33834324531751514,0.757997679574791,0.03259798020463118,0.7722554695170748,0.6405437968675814,0.5640441871232359,0.5476392774376287,0.8539831870948091,0.6594926603650654,0.6216641229648175,0.632897244017581,0.6527633522548977,0.7627847092380091,0.2563926642468263,0.5590493920020185,0.03112180759858268,0.8535505493303407,0.0197663965252321,0.5949294555651925,0.4072366165799621,0.4665726662104421,0.794838100110988,0.3271397274645176,0.3275875957620226,0.030482679117346274,0.8027500076022811,0.8207581515790938,0.6123654055412463,0.8549244953174626,0.3150760155562715,0.7650594157603986,0.419688862597117,0.4363350325252797,0.032644545095434775,0.598666418132245,0.6115508406081364,0.013399970329495381,0.25295632079800334,0.7693954949044794,0.28447009009477553,0.04253249708997866],[0.293480332346547,0.7425442115892867,0,0.3248077806662927,0.3385175072782416,0.24643176976292894,0.768110347456293,0.04478881126613873,0.3572327141194776,0.8223228950819668,0.7463255968927063,0.6011165106554694,0.01219154485062864,0.29557846431935664,0.7429509699507818,0.862866637536898,0.7185993839478836,0.5533029304170001,0.03063128859871589,0.7467174560228611,0.511478574052738,0.7938317476677902,0.5617542406848578,0.898096901932683,0.3804239080565721,0.35678612362665973,0.7154540253666405,0.312511899754445,0.8728715230463243,0.7105311404342269,0.2412521637891892,0.7747191280104858,0.24632846232086664,0.5963322131132311,0.0197663965252321,0.2627745659371689,0.7215139980882622,0.7263186209567587,0.7339220276867376,0.5693853568983946,0.719259699403833,0.7663454955539867,0.5836657715763164,0.24073076181629,0.016466107804312832,0.2998584474874579,0.2537789872986907,0.18956614671240402,0.7069770662938004,0.5543181063213131,0.5761372763025753,0.7132612971344285,0.02885269959738832,0.19009296608604342,0.6029634636956667,0.5913067445545882,0.31817090312147744,0.19125852869141136,0.3905810992060197,0.3757375068130392,0.21939618098213085,0.018620969789818424,0.8309784110592812,0.6094887092928998,0.7349145161413029,0.2960146113285302,0.7247500173950252,0.9492313994417061,0.3604672999663665,0.874939219198137,0.7801069343536673,0.5772120478911503,0.5722648355645281,0.7108819756158471,0.7783034938388224,0.36059113053600883,0.26537820897817443,0.34555931077451046,0.843980318425568,0.021482110813810486,0.3490477646201275,0.3275681358912941,0.7148393961715346,0.2562995526827663,0.24544212509617225,0.7518377339226822,0.670253397583973,0.025122068990271015,0.8572443415889713,0.7775369501306553],[0.03107308516846412,0.8363257504424318,0.3248077806662927,0,0.44019479194412353,0.5482630364012239,0.8502508098070604,0.3160605840340093,0.4428262374984547,0.7996749938449238,0.6351326736635434,0.6529860848394349,0.3138346401356301,0.02864281441841398,0.8409112427855001,0.8599559518915817,0.8216051170686774,0.5317903631155282,0.31573273375601046,0.8219164255328787,0.7018764860310192,0.5349910157660203,0.540706969261818,0.8763891837163875,0.4810962930059208,0.5450814595479019,0.811401044981627,0.024822702115150874,0.7806047629601645,0.8109674270619155,0.5458164099136511,0.5308916967207438,0.5498222528148329,0.5782378664349932,0.319011143747804,0.5666435297811475,0.8151285038584756,0.811865941843618,0.8272178436027651,0.5533491150502706,0.8049199746713394,0.8485056883965795,0.2768453980921354,0.5388459101056748,0.32488627092375066,0.04975321328314562,0.5495752831952602,0.21606768533428514,0.8075376379765206,0.5354535126052594,0.31704713782442745,0.8164690522741512,0.31595974305433466,0.22761092989545229,0.44698732084141096,0.44499412004918454,0.023079742536850467,0.20717021015314602,0.24075058236561553,0.22358721127294495,0.5313397164832196,0.326364253136117,0.822631988888587,0.45589657349226853,0.8167137982576028,0.04440885025961202,0.8246993539707455,0.8132590413928041,0.43613017461056924,0.7805678976305116,0.5322136241912037,0.55677052450588,0.5532365332737514,0.8047769487042234,0.5270424507206519,0.04836670657068099,0.5667562750999897,0.02113526150270383,0.8115606369902759,0.3296245234767786,0.424632579607582,0.41371963890731517,0.8027818734193863,0.5520110903311751,0.5451634949814197,0.8495283456287807,0.8599113241855085,0.32176152359085586,0.8404110097607947,0.8581969862968354],[0.4130673983013968,0.4155665977177221,0.3385175072782416,0.44019479194412353,0,0.31525295812043463,0.43703667648149336,0.38213473921413493,0.021550862179886318,0.4882670029409338,0.4617582360376271,0.2609208060696702,0.3458267687660431,0.4154475619211682,0.4178600470346113,0.5242078603274808,0.3954554634298021,0.23775248480917718,0.3679277413383812,0.4129940053399353,0.26920721728339203,0.6503893567558435,0.24455910339446763,0.5622061552009563,0.04300001083568246,0.13763683262422094,0.3888785455884117,0.45008653427643786,0.5651984096277771,0.3859472124988611,0.3208837540609178,0.6144309117891347,0.3200484023923465,0.27304118265201494,0.35825331962839113,0.3292036178093945,0.3940371069164046,0.3956933797626328,0.4065622496446917,0.2483032279874088,0.38853385954977576,0.43524745808573595,0.5627400276229522,0.30243440460465176,0.3565894475064132,0.38910816742698967,0.30193889874724,0.2374579760057607,0.3823767341421127,0.23702895123572804,0.4829344540370331,0.39010709236874636,0.3662205298309139,0.22578054469820766,0.385301989508019,0.36771964981340105,0.4539493720373023,0.24569476327082457,0.28228428619032553,0.2839490409044039,0.334462810046753,0.35887140523740463,0.49359713783072745,0.3876049752314748,0.403110256528832,0.44898237233850674,0.4002308821394916,0.6639049726514299,0.032176023658736355,0.5683098835374447,0.6241573139878331,0.2574455913177581,0.25240219487710597,0.38330158560285293,0.6270713802072877,0.43663117550526187,0.3230663322682715,0.4612567379166492,0.5120402056796766,0.3617610098220206,0.030482679117346274,0.026058425521700596,0.3848919626509305,0.30285547688991804,0.308855639207682,0.42679528288797436,0.42105907304665496,0.3644791135026222,0.5210545936118373,0.4461116914671825],[0.5154219730388963,0.6171086122892009,0.24643176976292894,0.5482630364012239,0.31525295812043463,0,0.64914988202979,0.2832078516231107,0.33846099966454946,0.7792867723709197,0.7787860503966322,0.531468940789154,0.26038962606537885,0.5178328569040639,0.6141161941045458,0.800528238397293,0.5884848690120009,0.552696400521535,0.27304701294696676,0.6356984753648532,0.33562355324987847,0.9305478014627853,0.5588179205579457,0.8468702721830356,0.33585142646435023,0.2306364351286171,0.5914499169206386,0.5420020903856374,0.8775379581905649,0.5834768914138498,0.007337965951580979,0.901149065601394,0.0032732061757312124,0.5836000810408053,0.2636452846330318,0.016899809211729403,0.598666418132245,0.609415307591008,0.6098634449001497,0.5608664101094119,0.6031330153471673,0.6475601981850062,0.7729651941980756,0.011242501380369266,0.2574455913177581,0.5113536835466118,0.01584101198948628,0.3508517579255118,0.5802593037895587,0.5514465909337194,0.7318696879368214,0.5836192415417776,0.2716617566601538,0.34295234111788453,0.6877622509131084,0.6716253637196115,0.5475488611003,0.3579639223922839,0.5228810322588312,0.5145755043948035,0.03759369392416835,0.25768036719833987,0.7760324979240486,0.6915997445643316,0.6199964417514651,0.5287788223076291,0.5963884692920474,0.9804553771412727,0.3489427021197151,0.8809970937188574,0.9092405239836181,0.5703411919821374,0.5654018521304524,0.5891116105414901,0.9101599377539081,0.5734137052129894,0.017239654958526567,0.5707583433090596,0.8061406230149956,0.25682054564788537,0.343755510352623,0.3253225292304615,0.5974135482712917,0.016899809211729403,0.004664395102548556,0.6222447042934998,0.4752572740537149,0.2654921387857948,0.8061406230149956,0.6587459190816415],[0.8285215059315337,0.0340133421218666,0.768110347456293,0.8502508098070604,0.43703667648149336,0.64914988202979,0,0.8137543161471175,0.42430553509204405,0.2597777418248245,0.45850787800370385,0.19691934912659612,0.777273726458656,0.8306262186289739,0.042242329172057405,0.22404177346357965,0.06422824932698848,0.34513464413367423,0.7993290412370556,0.029009174872691057,0.3273540013790476,0.8206100864887703,0.33844687129472667,0.28076287700734665,0.39237793969432827,0.4258520853251053,0.05630096313214399,0.8657361584991616,0.43636063302997813,0.06559752376099758,0.6579278993756955,0.7729672624157372,0.6539764496456464,0.3104197859687065,0.7890077443058254,0.65285881835612,0.04887528112240844,0.04000190130970851,0.038795918948311185,0.32498435723336977,0.047072117014866695,0,0.8762833479750449,0.6402843062877368,0.7863590347631206,0.7991710131818939,0.6315501749707819,0.6707872725226249,0.06839293913803277,0.3402224497908534,0.7584868016750277,0.06784283439162486,0.7975609507588718,0.6597543051082927,0.5600199602153263,0.5442222780226609,0.868568604019457,0.678281132381901,0.6305652306283467,0.6425786600805264,0.6843728277130852,0.7884259927282962,0.22746419813739616,0.5545514499608203,0.03227024353338055,0.8691005019021425,0.05529931667788145,0.5701619194805784,0.4264362144916028,0.44197850660294324,0.7855637019299698,0.32690581479512926,0.3278987974817173,0.058254149198678586,0.793793481169655,0.8327947443127826,0.6448599176046964,0.8683163450537099,0.28736618208139536,0.7908050238243772,0.4389568024821732,0.4565263216489436,0.051615905061456704,0.630790713088917,0.643510506295358,0.03903211548078772,0.2871444363754817,0.794888384363903,0.254361414072587,0.007850216360307107],[0.2865670994998933,0.7884645191363331,0.04478881126613873,0.3160605840340093,0.38213473921413493,0.2832078516231107,0.8137543161471175,0,0.40018305001200977,0.8628481055363935,0.7787757863419529,0.6448425717406784,0.03472239150977654,0.2884171603527283,0.7889773497707898,0.9048680873574044,0.7646999301754186,0.5916659607355599,0.012642683628720095,0.7920816902299097,0.5577364543563575,0.8069890276972755,0.6002654354608089,0.9390405116027848,0.42464761010600965,0.403359497869768,0.7613750595418783,0.3005005191141723,0.9080789435291502,0.7565558894968691,0.2772304326357298,0.7903742913590864,0.2825549085313053,0.6354847870964541,0.02327228671496136,0.2984901538653491,0.7673857271994394,0.7719676697810018,0.7798117751838106,0.6083867566242566,0.7648943241252142,0.811986062667333,0.5844398173250464,0.2787709979860082,0.02735177642914532,0.29807363906095347,0.29214776695477546,0.21348545443555045,0.7529977472354047,0.5929066895689965,0.5869844990139014,0.7593567455417697,0.014420556348782507,0.21630292131722614,0.6287635506278203,0.6180477278489337,0.3060784442842234,0.21340356236633778,0.41115106161755105,0.3952295126547974,0.2528997041739684,0.026000827525350007,0.8724995515147672,0.6356733392864858,0.7804675332088828,0.28226172269052097,0.7707905106634791,0.980535308971207,0.4028133404580221,0.9099648815525718,0.7951136188688263,0.6159631886958092,0.6110673340696329,0.7567375834219772,0.7927111869161924,0.35626290564051377,0.30186503082214733,0.33528145458278025,0.8839272798488854,0.025476971064350148,0.3911401811673051,0.3699117332766587,0.760532642828705,0.2946339804679074,0.2828984532291348,0.797873604405766,0.7161774951631944,0.018224599132125617,0.8983336944133774,0.8231565998553244],[0.41673595119423,0.4042168246714554,0.3572327141194776,0.4428262374984547,0.021550862179886318,0.33846099966454946,0.42430553509204405,0.40018305001200977,0,0.46696252122512055,0.43853487483093184,0.2435227169073966,0.36405450914143644,0.4190649110507194,0.40703677495920676,0.5042599699905531,0.38530612897777355,0.21446574042207062,0.3860835644387241,0.3994049786663064,0.2758314202640706,0.6327406962856631,0.22132205441452196,0.5413534407664555,0.036937250121045706,0.15419158045391046,0.37780310556862445,0.4539774988995113,0.5419903036623335,0.3754657697260774,0.34414018393797574,0.5960320907529786,0.3432682606919863,0.2501417054449779,0.3766108356533914,0.3523028161436903,0.38266025834970174,0.38330158560285293,0.395148784779104,0.22522361051567327,0.37614474610556714,0.4225155019917947,0.5536405669133877,0.32566035198322807,0.3751895862570918,0.39143776153235577,0.3250431948894841,0.24606354045813408,0.37191520719256266,0.2137829815353596,0.4699542928421019,0.37999185459617885,0.38439852594565455,0.23468928253175492,0.3652351782752554,0.34745933273631563,0.4576263037772125,0.2539607465636997,0.27318107561134497,0.27626396521008106,0.35780354062858516,0.3775117262609064,0.4731330652986606,0.36726404054286577,0.39027469474839777,0.4539317918668736,0.38967344632083706,0.6405862036293645,0.01086827929105434,0.5450814595479019,0.6059475179284485,0.23432309957026162,0.22927431239733687,0.3719580824904968,0.6091111208719568,0.4366238657415765,0.3461124447625814,0.46339728829534615,0.49039100781731454,0.3805035538944416,0.017239654958526567,0.030432990319564854,0.37278461435294863,0.32593427097175764,0.3320572315937695,0.41593500952849627,0.42364315905222755,0.382897757353613,0.5002544343309654,0.43322625155242506],[0.7866883238002412,0.28662821863019877,0.8223228950819668,0.7996749938449238,0.4882670029409338,0.7792867723709197,0.2597777418248245,0.8628481055363935,0.46696252122512055,0,0.23961157616872011,0.2478735855357928,0.8276777391407666,0.7882434736893378,0.297431714930352,0.07037412174820397,0.3080964600971495,0.2751321568145781,0.8492516149796616,0.23998963197898612,0.5179716051685591,0.6168962731046495,0.26604909607332666,0.07593315130542612,0.45292859864592877,0.5482921667183264,0.29045295579861174,0.8210094115921881,0.17655483479114134,0.30138973585428425,0.7868407258666773,0.5689250889978061,0.7843498307137616,0.22861457323766604,0.8405061339674369,0.7885030436662266,0.2848392923187525,0.2650961736569436,0.2846435625280493,0.25580238924768084,0.26543218178405636,0.2595632439004761,0.7425894179390237,0.7678480637391857,0.8398152879097888,0.7534052405482279,0.7629313983129901,0.6735903098339732,0.3016433191523326,0.2727845271121968,0.615677798327139,0.30832905924786547,0.8476553630955465,0.6652179299370001,0.4027182812861347,0.3928817002719134,0.8222353946524318,0.6786697896807612,0.5577794095068469,0.5744601891637445,0.8073079403147947,0.8422336229146223,0.03763435874638493,0.3946438631094874,0.2560013696781816,0.8304414023424619,0.3007972150444114,0.3095254795244141,0.46181354052816775,0.18221517696488151,0.5814501217404243,0.24960049777082463,0.25409854678173205,0.28544241776779056,0.5911473233333085,0.7685181668411889,0.7809978851148287,0.812606076749943,0.028218640498937908,0.8454908302708258,0.47255239177912783,0.49434376083404935,0.27102816770453425,0.7629858756605057,0.7729445117177907,0.2979400182396808,0.532681522465729,0.8469212496410605,0.039539244134868215,0.2574950354851387],[0.6301647377323064,0.4737938987524464,0.7463255968927063,0.6351326736635434,0.4617582360376271,0.7787860503966322,0.45850787800370385,0.7787757863419529,0.43853487483093184,0.23961157616872011,0,0.3354953069115008,0.7477443098510936,0.6311528369133712,0.48424835067058075,0.3115110652853977,0.48458780106429233,0.22867020304451005,0.7670377502573488,0.4306957224480153,0.609103251964785,0.3756611005305484,0.22446001395410833,0.29557846431935664,0.44499412004918454,0.5723290320803216,0.46599755082077005,0.6596985931415605,0.14462169979540362,0.4745782887325964,0.7844232049769342,0.32762164776961095,0.7835912285966051,0.21232114835509325,0.7604548666902861,0.7924993927664253,0.4631733381635101,0.44594709664069954,0.46833128467657636,0.22677119390979716,0.44298838462464235,0.457619328071662,0.5222912718042058,0.7659803510496753,0.7615996869296441,0.5962732723931053,0.7652578966199957,0.5671619732564116,0.47325788485980586,0.23107723748946282,0.39529811844524787,0.48255745512062304,0.7657298658459699,0.5622999034112057,0.1916316821809545,0.18969171136377774,0.6595580812551919,0.5694134100175786,0.39935704805948086,0.417756939339312,0.797175978312713,0.7641310969587626,0.2778499692891523,0.18251971375442413,0.4409482294700762,0.6733814943377526,0.48008979747100616,0.20265073363408387,0.42818756734246033,0.1440954310539027,0.34017559553682275,0.21728522856441362,0.22151588093536778,0.4589775930951189,0.34980055338380506,0.5952703899181598,0.7861882381249702,0.6431329602323006,0.23209341100327485,0.7679105203499231,0.43412041296477494,0.4538579477441266,0.4464728724281792,0.7660972161823139,0.7723817363419233,0.4881721709906364,0.6796933691709651,0.766812627390261,0.27605642767328675,0.4599572342023506],[0.6321848923875045,0.18895388542689526,0.6011165106554694,0.6529860848394349,0.2609208060696702,0.531468940789154,0.19691934912659612,0.6448425717406784,0.2435227169073966,0.2478735855357928,0.3354953069115008,0,0.6085364240289751,0.6342288633695498,0.1959412152236485,0.2685500950719025,0.18301459952687407,0.1564860778798523,0.6306387112711864,0.16763462875861096,0.28132941134709716,0.6589035808495282,0.15180023962575806,0.31361118171948643,0.21928024001917412,0.2994810576733332,0.16804082189828526,0.6692273580479395,0.3773934215164552,0.1715521045794265,0.5392606901537593,0.6130564160244042,0.536529142238438,0.1351202486437018,0.6209492141345149,0.5399976214589195,0.1695624839387128,0.16153823711317625,0.180289282953492,0.13967903393918182,0.15513382944302637,0.1952267949859455,0.6835386349667706,0.5203523045509979,0.6192254307421275,0.6021760150961187,0.5148299007776236,0.48211725183551374,0.16875637866706297,0.15142420159154507,0.5698676787523641,0.17883138683952657,0.6289312477111588,0.47168343050786016,0.3841744054107092,0.3667122175727047,0.6718727820366125,0.48904458673984574,0.43202747586445833,0.44389172307211805,0.5609319069829973,0.6214918997922971,0.24278349585349643,0.3802939239422899,0.16442647559810727,0.6734574347169221,0.18300592874190072,0.5026456899040778,0.2425671952452235,0.3820971746047832,0.6252622169284836,0.14472016473321145,0.14393058229852518,0.16057394261518454,0.6322076393785383,0.6344102318771949,0.5323966332099092,0.6706323971093242,0.27605642767328675,0.6243364815582757,0.25488009821704544,0.2749063977968179,0.15453021431584144,0.5147740684014872,0.5251909070875155,0.20361251943586894,0.34382506137137947,0.6271631029855889,0.27292455076823896,0.20432119607915777],[0.28280838326591234,0.7520524496984518,0.01219154485062864,0.3138346401356301,0.3458267687660431,0.26038962606537885,0.777273726458656,0.03472239150977654,0.36405450914143644,0.8276777391407666,0.7477443098510936,0.6085364240289751,0,0.2848616529279233,0.7526070262659142,0.8691133812123675,0.72836681283172,0.5574356759179787,0.020353077085490123,0.7555727196566026,0.5235646909627976,0.7885192639591025,0.565966587699262,0.9037008978789054,0.38822173826194184,0.36809672950165306,0.724963916802344,0.3009242814235895,0.8755293553659319,0.7201857897556204,0.25517958232780685,0.7701472898484952,0.2602673635135119,0.6008932197512344,0.011118966106247984,0.27669583832736383,0.7309583645259573,0.7354885040654076,0.7433897615604599,0.573859250060432,0.728412896894597,0.7755049425054779,0.5749827191205835,0.25471148474156186,0.012642683628720095,0.2902774475586548,0.26776062274744294,0.1870288341251371,0.7166259482043214,0.5585691965792489,0.5700638560598501,0.7230210747531598,0.018620969789818424,0.1884239112670254,0.6017142042735266,0.5904009862968894,0.3065776910232811,0.18808665198192734,0.3873374076641772,0.3721166783443966,0.2331597550743266,0.015098309773368896,0.8369239508456936,0.608384130552635,0.7439744154339505,0.28410601584307216,0.7344271451473184,0.9502098160927893,0.3668730701608502,0.8775142684856477,0.7753400079922622,0.5815545116754153,0.576633359786328,0.720305628263995,0.7733559892971774,0.3505608291897335,0.2793301467529268,0.3343293536202435,0.8490105789273322,0.01908668322469329,0.3552814883130311,0.33396207492434965,0.7240615836135877,0.2702812263604667,0.2594160578066915,0.7615073247914095,0.6826683104484688,0.017573537109947416,0.8629314964110086,0.7866720658411546],[0.0007415151372901692,0.8158029725392212,0.29557846431935664,0.02864281441841398,0.4154475619211682,0.5178328569040639,0.8306262186289739,0.2884171603527283,0.4190649110507194,0.7882434736893378,0.6311528369133712,0.6342288633695498,0.2848616529279233,0,0.8201208925302146,0.8471477790853958,0.8003704465876134,0.5176107825877423,0.28751576435098275,0.8026444430671104,0.6749484077946573,0.549653744355512,0.5266150474681583,0.8653371038280233,0.4570539437297996,0.5173608354326025,0.7905967645912909,0.033381200048983324,0.7757831901653434,0.7898522452160944,0.5153971878009459,0.5431412503254011,0.5193970255325341,0.5643839085905898,0.2904200560332262,0.5362165077541552,0.794506144404398,0.7917930040359953,0.8066818811675893,0.5389881562471691,0.7848001592014393,0.8288707326974478,0.2991777403014551,0.5084130965766573,0.2962028724043637,0.033381200048983324,0.5191479354210623,0.18753732430083014,0.7863956292275265,0.5210913687762018,0.32951330156226327,0.7951940443372879,0.2876763406912278,0.19923629558094907,0.4458611970544626,0.44260994930012004,0.03677139314468105,0.1786005831559607,0.23231254423577113,0.2144361000825231,0.5010071061974938,0.29774749953959634,0.8100758126240968,0.4546169167354418,0.7969352763090842,0.04076181950141114,0.8036895192601045,0.813355368385012,0.4128587737735602,0.7759645128244136,0.5451078294220859,0.5428471220445534,0.5391392517867213,0.7840786941673902,0.5404322071139407,0.06772768132739512,0.536323717181935,0.051345188179384445,0.8010972295942475,0.30108303943180637,0.40114259047865686,0.3893704273312513,0.782488726315436,0.5215845189925373,0.5147306390476339,0.828799355740585,0.8336007359158639,0.29337177700896355,0.8287144670500656,0.8387198104203185],[0.8179462057854389,0.00909903899301251,0.7429509699507818,0.8409112427855001,0.4178600470346113,0.6141161941045458,0.042242329172057405,0.7889773497707898,0.40703677495920676,0.297431714930352,0.48424835067058075,0.1959412152236485,0.7526070262659142,0.8201208925302146,0,0.2660969522888289,0.023841242323316834,0.3513285436783976,0.7745457705561425,0.05574664569201994,0.2875102256461232,0.8392381967474996,0.3454716504323252,0.3229627325925711,0.37307966797421327,0.3948459089097767,0.02773416141437046,0.8552910074844144,0.4718898262956231,0.03063128859871589,0.6229914724039645,0.7920029680437229,0.6188744198730554,0.321022769177518,0.7640746088460716,0.6170671859742436,0.024641454526035656,0.036937250121045706,0.014714430405883964,0.33239783600805983,0.04132296895161507,0.04147137952770333,0.881027950220543,0.6056679733956309,0.7611545665044331,0.789540472140353,0.5964875744507918,0.654794511439065,0.0341919143918377,0.3463012307505105,0.7659845251107172,0.02880036330726963,0.772766619589607,0.6434881577467921,0.5729538753415349,0.5564491332722555,0.8583627989200283,0.6625749495987843,0.6277437035739659,0.6387651807900838,0.650042836396439,0.7631513791820106,0.2670284456487266,0.5680428070376831,0.041803456041340184,0.8576303738294213,0.016466107804312832,0.6058156733246994,0.4103703692293937,0.47745900454554474,0.8045206303984549,0.3355333109096848,0.3358751544138349,0.034458123374748274,0.8123856813921942,0.8259024483060504,0.6090612827479059,0.8596639704083958,0.3258315781892263,0.7653790491622087,0.4227835445584926,0.43908039440919594,0.04015498635418767,0.5956245406772137,0.6086151816072675,0.007160703604603495,0.24338550815662763,0.7698254783695757,0.29497434093636254,0.04984639212844456],[0.8454927214534189,0.25590811673158104,0.862866637536898,0.8599559518915817,0.5242078603274808,0.800528238397293,0.22404177346357965,0.9048680873574044,0.5042599699905531,0.07037412174820397,0.3115110652853977,0.2685500950719025,0.8691133812123675,0.8471477790853958,0.2660969522888289,0,0.28177052237113986,0.3288548768856565,0.8909782817404138,0.2114287171024294,0.5170922395650072,0.6885425978564095,0.319744553113926,0.05510250424868876,0.4856014461464301,0.5681074791470005,0.26604909607332666,0.8805050590621721,0.23468928253175492,0.27736822626948177,0.8084973065692287,0.6406335961092853,0.8055771708415057,0.28177052237113986,0.8818117067723016,0.8082975517819208,0.2593608416347233,0.23998963197898612,0.25611944167362133,0.30812231306812005,0.24220626812402046,0.22428997558360764,0.8126828075628003,0.7896801778601404,0.8806812063121312,0.812606076749943,0.783656513494822,0.7233260918666743,0.2784452656418278,0.3258169051639329,0.6860777801640535,0.2832078516231107,0.8893309055308132,0.7143271751347762,0.4731735509126124,0.4627251139903017,0.881993032832629,0.7289371726580021,0.619403441297027,0.6355526723108922,0.8308013711916749,0.8830421802935774,0.03618518967546477,0.46525364529165786,0.2293575139201552,0.8890197721374313,0.2734839331351249,0.3628831995031615,0.5006117751260206,0.24024796150508795,0.6531329000511683,0.30330222943507956,0.30733023294675754,0.26258068344562135,0.6628932407029319,0.8306724162894543,0.8005781660505341,0.8737540933100566,0.0821001486095262,0.8861316572147672,0.5120682711475596,0.5335083405998066,0.24845054710967052,0.7834851290610647,0.7943149556017408,0.26456730449281896,0.5097492596495922,0.8881631443129715,0.036937250121045706,0.21944688604733434],[0.7981701115749177,0.028590116560141637,0.7185993839478836,0.8216051170686774,0.3954554634298021,0.5884848690120009,0.06422824932698848,0.7646999301754186,0.38530612897777355,0.3080964600971495,0.48458780106429233,0.18301459952687407,0.72836681283172,0.8003704465876134,0.023841242323316834,0.28177052237113986,0,0.34044726091878263,0.7502712214356904,0.06855257599911752,0.2624594346503305,0.834168301270146,0.33507697995934876,0.33862578731934523,0.35072905164476287,0.3695364967168611,0.016899809211729403,0.8355396050457646,0.47989689514315403,0.009672542800776477,0.5973600627426999,0.7872469874660445,0.5932433971177599,0.3127921740456544,0.7397684483514614,0.5914499169206386,0.021482110813810486,0.04121132488457049,0.024641454526035656,0.3223058322776642,0.04150840268846204,0.0630774598737218,0.8680842758784044,0.5800390244898753,0.7367870240772627,0.770157668630312,0.5708562878016314,0.6331597535404005,0.012642683628720095,0.33539077382986254,0.7545988641300861,0.0035803518023017475,0.7484900357645281,0.6217694898041413,0.5649270393512328,0.5480590809694638,0.8387026524670054,0.6410325520769804,0.6114646214308086,0.6220187014650906,0.6244183696597828,0.7387673190483686,0.2797630078327032,0.5603507118619024,0.05089090200747893,0.8374835412040262,0.007160703604603495,0.6136477212560871,0.3890630737838903,0.48540743717439105,0.7996989850194377,0.32608580629428646,0.3260662572850755,0.023841242323316834,0.8073257640184661,0.8076089102036366,0.583444036467211,0.8406202688368425,0.33712563068301044,0.7409602559595952,0.4014089450257279,0.4172218999876064,0.03685441061223526,0.5699938004624115,0.5829838733924465,0.032176023658736355,0.22618856696761058,0.7454876574165108,0.30870085545389375,0.07290543646693805],[0.515880285894021,0.3433564806515155,0.5533029304170001,0.5317903631155282,0.23775248480917718,0.552696400521535,0.34513464413367423,0.5916659607355599,0.21446574042207062,0.2751321568145781,0.22867020304451005,0.1564860778798523,0.5574356759179787,0.5176107825877423,0.3513285436783976,0.3288548768856565,0.34044726091878263,0,0.5785030120245542,0.3144382025523683,0.3910259809365569,0.505790201339176,0.007337965951580979,0.35280928369806913,0.2159720481305592,0.3418723122132514,0.32461638159042944,0.5514205232091313,0.32598316098842056,0.3290050742988173,0.5588179205579457,0.46120136691586017,0.5575989757088742,0.04530199958359871,0.5703411919821374,0.5655713318238855,0.3253225292304615,0.3147471455232317,0.3351530780358513,0.019988253887175893,0.30898456678003566,0.3436024488125342,0.5293643961709893,0.5400892977742648,0.5702263520033871,0.48340033695380497,0.5384545400978561,0.3969411161337397,0.3263593701400073,0.0032732061757312124,0.4128703667787769,0.33647728628798024,0.5769795346546426,0.3888170168179969,0.2276388681620029,0.20972348183417447,0.5531672408285944,0.4018736501940096,0.29546528470755745,0.3101836094109375,0.5736615821091523,0.572702903918545,0.2925182267547264,0.22448834125982284,0.31548031070183713,0.5591779459782314,0.3397583095102032,0.42652600981096594,0.20566178458025017,0.3289711647155544,0.4730925762331519,0.023841242323316834,0.0197663965252321,0.31704713782442745,0.47937101030324936,0.5057018013026615,0.5589808178312677,0.5467519704741333,0.2930730437602274,0.5761594567215775,0.21377554836267887,0.2350887242068728,0.309401925217884,0.5391422140224752,0.5462522289924359,0.3584046040233664,0.4880838626723047,0.5767940106811595,0.313860023127833,0.351038008082283],[0.285581849720192,0.7740316619277627,0.03063128859871589,0.31573273375601046,0.3679277413383812,0.27304701294696676,0.7993290412370556,0.012642683628720095,0.3860835644387241,0.8492516149796616,0.7670377502573488,0.6306387112711864,0.020353077085490123,0.28751576435098275,0.7745457705561425,0.8909782817404138,0.7502712214356904,0.5785030120245542,0,0.777674695829909,0.5438611945541831,0.8004663237919962,0.5870715813675237,0.9253619541163981,0.41035870590375767,0.38916145320854684,0.7469422006346735,0.3011941205417872,0.8956862629097907,0.7421243071532779,0.267332273013068,0.7831340822698437,0.27258019785186743,0.6221573947230259,0.00909903899301251,0.28870964973166485,0.7529531643065628,0.757542006810214,0.7653790491622087,0.5950878666108814,0.7504693439665933,0.7975609507588718,0.5814721001214715,0.2681704867986803,0.014221644125470318,0.29551379553130225,0.28144823958749116,0.20340178190487992,0.7385660650116281,0.5796946710278367,0.5810296257015426,0.7449277934161449,0,0.20566178458025017,0.6186885101993874,0.6077219998243051,0.3068114349024739,0.2037684820212383,0.4023298909352363,0.3866821194559552,0.2437838548276303,0.013609499485770091,0.8587017769429819,0.6254998233980384,0.7660471333034587,0.28348321481522093,0.7563593575269528,0.9691141625332845,0.3888170168179969,0.8976160036517306,0.7880588837788456,0.6027196498816464,0.5978118652861076,0.7423052181161292,0.7858261895169149,0.35461671710267484,0.29182595988621896,0.3354858052428515,0.8704536281960046,0.014714430405883964,0.3771862993482519,0.35590918886020023,0.7461049519997953,0.2839490409044039,0.27250426535956657,0.7834422771078943,0.7025160786334067,0.005804897214172254,0.8846235155413865,0.8087325980474137],[0.8005621895395199,0.04489190026092351,0.7467174560228611,0.8219164255328787,0.4129940053399353,0.6356984753648532,0.029009174872691057,0.7920816902299097,0.3994049786663064,0.23998963197898612,0.4306957224480153,0.16763462875861096,0.7555727196566026,0.8026444430671104,0.05574664569201994,0.2114287171024294,0.06855257599911752,0.3144382025523683,0.777674695829909,0,0.3210029135405772,0.7908535423872862,0.3077084063873041,0.2682832386933185,0.36855131436554106,0.40936221671651196,0.05347380385492043,0.8377183434026495,0.41442475865515255,0.06473599785400894,0.6443616582291499,0.743286539724127,0.6405862036293645,0.2796263867892848,0.7674544704842443,0.6401944581882283,0.046411785406139036,0.02800428906645665,0.04328530153366829,0.2942336921856731,0.03241108666804955,0.02757089193790262,0.8455702563055896,0.6264289457851818,0.7649737397283248,0.7709460481652861,0.6181614633696956,0.6448822187461966,0.06626005921198919,0.3095357735032688,0.7276905787663585,0.07010717521931772,0.7759150653827369,0.6339743564607622,0.5293975794739764,0.5135442257335152,0.8404775978334758,0.6522515144384674,0.6008161120117241,0.6130147166675056,0.6701580181379228,0.7670815164936711,0.21020777246870548,0.5239762880872251,0.016640813064406627,0.841399776958855,0.06035239692343468,0.5483533353635284,0.4009994018577957,0.4200004922430168,0.7558688620134068,0.2961168249603592,0.2971263180509683,0.051345188179384445,0.7640243936923897,0.8038227933407749,0.6322177488903672,0.8397829203362209,0.26853231284241025,0.7695513137049181,0.4135306331658518,0.4316135910998254,0.038795918948311185,0.6175097862624442,0.6299288858644917,0.05725849872989179,0.29653070059527115,0.773407667017417,0.2387204727507482,0.03511524574325079],[0.672467166169903,0.2926107688658862,0.511478574052738,0.7018764860310192,0.26920721728339203,0.33562355324987847,0.3273540013790476,0.5577364543563575,0.2758314202640706,0.5179716051685591,0.609103251964785,0.28132941134709716,0.5235646909627976,0.6749484077946573,0.2875102256461232,0.5170922395650072,0.2624594346503305,0.3910259809365569,0.5438611945541831,0.3210029135405772,0,0.8847536599689624,0.3918898156925846,0.5707891276692214,0.23919968417073195,0.15946483099412584,0.26967983255905204,0.7083299806449905,0.6603644074499224,0.25996757891419653,0.34473257842723587,0.8433890082896687,0.34002093093007163,0.3956329060615961,0.5329722527918266,0.3356093060639716,0.27725914525386736,0.2919296311600879,0.28678373618592434,0.3855875091484624,0.286822602481128,0.32598316098842056,0.8310034245275006,0.3290970970790043,0.5286126914776276,0.6520824465178244,0.3182159719415713,0.48728181765172823,0.2572353483118816,0.38707377664130255,0.7425097668132443,0.25822324481971515,0.542093428830404,0.47531101376887397,0.6055835573099959,0.5868946818447762,0.7127434597777238,0.4961877238106804,0.5507249301985758,0.5538136342450124,0.3737928238692982,0.5301210635008388,0.5022802544839379,0.6048919588271559,0.30330222943507956,0.7040319369038086,0.27109276719914144,0.7853744123955385,0.2868003938105259,0.6651194276687471,0.8545204022500779,0.3943284658783512,0.3909484690109108,0.26928998443784663,0.8593886360710578,0.7035891069118829,0.32768974122688277,0.723876124467723,0.5477238469946303,0.5313878036046455,0.2945853256358256,0.29704589857827235,0.2804962130894101,0.31694158169266745,0.3307973348305802,0.29475828432671863,0.15977257930952457,0.5377303511449707,0.5335801774826495,0.33652938901226487],[0.5502403962585468,0.8296015113629062,0.7938317476677902,0.5349910157660203,0.6503893567558435,0.9305478014627853,0.8206100864887703,0.8069890276972755,0.6327406962856631,0.6168962731046495,0.3756611005305484,0.6589035808495282,0.7885192639591025,0.549653744355512,0.8392381967474996,0.6885425978564095,0.834168301270146,0.505790201339176,0.8004663237919962,0.7908535423872862,0.8847536599689624,0,0.5083094449231365,0.6678720143820284,0.6596549891987344,0.7887219895384037,0.8164788435190068,0.5609347545002232,0.4828319658198404,0.8231565998553244,0.9328753886649408,0.046378531203279616,0.9343280476260054,0.5223279601960721,0.798680727771709,0.9481440250171572,0.8152912899944152,0.8005801630920432,0.8227660878855206,0.5189787322445987,0.7962709636482305,0.8194655791542497,0.2825549085313053,0.9178411488311977,0.8026524106851387,0.5247102652442408,0.9226341953153103,0.6065035874073839,0.8211028841057663,0.5106037012551345,0.21997497657295487,0.8310746125945134,0.799876897154471,0.6092711000067939,0.27845098350721526,0.29706198420404656,0.5575932466986518,0.6030508947013509,0.40965830133113323,0.42127122886430274,0.9335677387002618,0.8049120294495359,0.6552921754978875,0.2803088303490436,0.7978575738591375,0.581183567938654,0.831474691776226,0.4246551251565615,0.6200840547143495,0.47898121855576703,0.03374380113889024,0.5129095235719681,0.5142775151344592,0.8089836321171043,0.02506246261611223,0.4848348246986711,0.944242841384719,0.5288180819945495,0.6074616801580901,0.8088729495104021,0.6182234921326911,0.6284534476359787,0.7984504902142265,0.9243555574893715,0.924992031539231,0.8446601930257268,0.9952349490049733,0.8037909686986213,0.6523005114637178,0.8236381709653446],[0.5248897967406411,0.3373524946387439,0.5617542406848578,0.540706969261818,0.24455910339446763,0.5588179205579457,0.33844687129472667,0.6002654354608089,0.22132205441452196,0.26604909607332666,0.22446001395410833,0.15180023962575806,0.565966587699262,0.5266150474681583,0.3454716504323252,0.319744553113926,0.33507697995934876,0.007337965951580979,0.5870715813675237,0.3077084063873041,0.3918898156925846,0.5083094449231365,0,0.3437184107512434,0.22166651866129175,0.34637487556272784,0.31903112265544303,0.560396317507528,0.3188962408740198,0.32365277415480026,0.5650203375382168,0.46339728829534615,0.5637354299167411,0.03618518967546477,0.5788701490829716,0.5715274564223253,0.3195700836539188,0.3086337585257511,0.32923266296867915,0.011843397581599637,0.30296591196157713,0.3369317307310496,0.5360973611058875,0.5462522289924359,0.5787183536434446,0.4923794429726033,0.5444482006627778,0.40596143941918417,0.321062476787998,0.005804897214172254,0.41890116086930446,0.3311873539789467,0.5855430478993081,0.3978041936107098,0.2311047599352971,0.21340356236633778,0.5621265990430248,0.41091817373337414,0.3040418739065701,0.3188662594397855,0.5801684486815962,0.5811918136970438,0.2833933295382464,0.2276388681620029,0.30912374850880275,0.5682058791473722,0.33419584418374165,0.42098327731059265,0.21276970609030202,0.3219694585407641,0.4753681055845874,0.014714430405883964,0.010741055406905243,0.31144968582137506,0.48180920246001757,0.5144296353119814,0.5648817983373,0.5556017248545642,0.28410041107941497,0.5846365846585081,0.22112805936234925,0.2425475220586518,0.30352798466811554,0.545104899498855,0.5523697549585271,0.3524385481007005,0.48624211354781477,0.5853220217830039,0.3047431444361961,0.3442142887153344],[0.8638056899691008,0.3127921740456544,0.898096901932683,0.8763891837163875,0.5622061552009563,0.8468702721830356,0.28076287700734665,0.9390405116027848,0.5413534407664555,0.07593315130542612,0.29557846431935664,0.31361118171948643,0.9037008978789054,0.8653371038280233,0.3229627325925711,0.05510250424868876,0.33862578731934523,0.35280928369806913,0.9253619541163981,0.2682832386933185,0.5707891276692214,0.6678720143820284,0.3437184107512434,0,0.5255100786525514,0.6147818534931461,0.3228048028383635,0.8979419738875806,0.19626509978326717,0.3341195292524407,0.8546551211238256,0.6205245093603156,0.851930428119528,0.30620333183726844,0.916500266304252,0.8553003552344967,0.3161613930311317,0.2967401070085045,0.3130060336501251,0.33335064304737105,0.29883680871414764,0.2810406206292273,0.8108195498851516,0.8357386020852201,0.915688508815154,0.8304414023424619,0.8302180278889533,0.7511272476763494,0.3351483224095914,0.3504152747045013,0.683463811794954,0.34002093093007163,0.92375154049647,0.742684127103979,0.4711179188662424,0.4626216162082102,0.8990952808834661,0.7562579017356915,0.6342036692084182,0.6510573019300928,0.8761081435389095,0.9180920200967884,0.06909717317519833,0.4627078659614117,0.2861667266627661,0.9075945137707611,0.33035861889846413,0.3177098349778395,0.5367077090229179,0.20151895917786422,0.6328139250319534,0.3272566214428097,0.3317258883863766,0.3192308433449751,0.6429366483193081,0.8445541761152443,0.847668567552402,0.8890197721374313,0.06504838543393109,0.9213037469340519,0.5476976026629329,0.5694106047676594,0.30504618244470766,0.8301486925878633,0.8405917365692606,0.321355169731564,0.5666012445208625,0.9229010950004063,0.039422768318384226,0.27598721403684595],[0.4547081890276524,0.3707772139326857,0.3804239080565721,0.4810962930059208,0.04300001083568246,0.33585142646435023,0.39237793969432827,0.42464761010600965,0.036937250121045706,0.45292859864592877,0.44499412004918454,0.21928024001917412,0.38822173826194184,0.4570539437297996,0.37307966797421327,0.4856014461464301,0.35072905164476287,0.2159720481305592,0.41035870590375767,0.36855131436554106,0.23919968417073195,0.6596549891987344,0.22166651866129175,0.5255100786525514,0,0.13087623215221017,0.3440892276936569,0.4918895765948525,0.5399710028487325,0.3411862233782947,0.3423010051463025,0.6215715910554069,0.3408075873028311,0.24606354045813408,0.400501823437138,0.34820638155893724,0.3492486661356282,0.35098804817981505,0.36177423218907334,0.22326704751181697,0.34382969760832266,0.39058926671624855,0.5900437097944332,0.3234212806045178,0.39858937799485594,0.4297647627820519,0.3211964539333685,0.2815387419392799,0.3376169775993713,0.214406455679315,0.5034138297360565,0.3453839679561893,0.4086327833624097,0.2699512141413074,0.3876049752314748,0.36939838325084984,0.49560819285887603,0.2896623364240441,0.30995239399087593,0.3137127733466848,0.35887140523740463,0.4008243243865558,0.45610658577743796,0.3888785455884117,0.3584802223981563,0.4914577019116441,0.3554654290999814,0.6442872582019448,0.04631195382922894,0.543391134598993,0.6318461183751154,0.23277069140034323,0.2278552744831349,0.3385127986688177,0.6354847870964541,0.47531101376887397,0.34149443288092035,0.5017841095290198,0.4777264091502885,0.40359672810797675,0.05585793558632642,0.06614222321862359,0.3401521660022511,0.32180114054943365,0.3293972040896657,0.3820136845319154,0.3852067694831089,0.40665641419765547,0.4842977999410579,0.40148047298348455],[0.5148547132302904,0.3962291780011605,0.35678612362665973,0.5450814595479019,0.13763683262422094,0.2306364351286171,0.4258520853251053,0.403359497869768,0.15419158045391046,0.5482921667183264,0.5723290320803216,0.2994810576733332,0.36809672950165306,0.5173608354326025,0.3948459089097767,0.5681074791470005,0.3695364967168611,0.3418723122132514,0.38916145320854684,0.40936221671651196,0.15946483099412584,0.7887219895384037,0.34637487556272784,0.6147818534931461,0.13087623215221017,0,0.3695753318743799,0.5501010503116094,0.6567050479077884,0.3629227431140495,0.23866050417096638,0.7518377339226822,0.2356832532125259,0.36519588383477825,0.3783346131963004,0.23873379707133968,0.3763736254853718,0.38482979943490847,0.3882587130307023,0.3456192761589323,0.37817439554678495,0.4241738946321502,0.6967661893106863,0.21991716500980515,0.37449185316312317,0.49628424674482136,0.21377554836267887,0.3284815103529041,0.3594973038225568,0.339570599081136,0.6215664499910328,0.36436097411329904,0.38737446645373336,0.3166096060316867,0.5195230628126919,0.5014530744776025,0.5546868020281462,0.33742808224107324,0.41772638404438667,0.4174359976698716,0.2619009721090923,0.3762083376125665,0.5439081782798902,0.521051528898048,0.39480954826205095,0.5448704547612493,0.37665317896595657,0.7678480637391857,0.1668478146708503,0.6605773266768779,0.7618284450192269,0.3552590500270119,0.35063358388906163,0.3662205298309139,0.7650594157603986,0.5503274696162469,0.23112539963542506,0.5674322780548461,0.5756823899671614,0.3778790807850065,0.16929108219347866,0.16247736366298976,0.3728701610562643,0.21364170739786864,0.22443876614709735,0.4034583606793142,0.3210029135405772,0.3835137379069841,0.5741820545594148,0.4354893750554678],[0.7884219372076577,0.025300101217532272,0.7154540253666405,0.811401044981627,0.3888785455884117,0.5914499169206386,0.05630096313214399,0.7613750595418783,0.37780310556862445,0.29045295579861174,0.46599755082077005,0.16804082189828526,0.724963916802344,0.7905967645912909,0.02773416141437046,0.26604909607332666,0.016899809211729403,0.32461638159042944,0.7469422006346735,0.05347380385492043,0.26967983255905204,0.8164788435190068,0.31903112265544303,0.3228048028383635,0.3440892276936569,0.3695753318743799,0,0.8257669212734242,0.4616026567709733,0.009531890618811536,0.6002547894074172,0.7694786021822176,0.5962598759647705,0.2959015975357671,0.7365136127783898,0.5949858439775194,0.005804897214172254,0.024275178661889406,0.016899809211729403,0.30612528305253633,0.02327228671496136,0.05482015669866117,0.8533688136751144,0.5826960874983743,0.733675875011873,0.7600259043208283,0.5738397646870717,0.6254998233980384,0.011118966106247984,0.3195700836539188,0.7391004582065391,0.016111583110357864,0.7451659477797383,0.6142176495963175,0.5480590809694638,0.5313126655712586,0.8288398677390587,0.6332556434131718,0.5987731517408796,0.6096669338846146,0.6268776992838232,0.7356949434471324,0.262798791259245,0.5433705602220176,0.03511524574325079,0.8281122799810596,0.013399970329495381,0.5953025941216993,0.381022940816264,0.4671026529874913,0.7819471162295946,0.30964898481441905,0.3097724411461901,0.005804897214172254,0.7896315873634526,0.7964958080617696,0.5869844990139014,0.8301718049969343,0.3196299124231269,0.7379706386702273,0.3934496905191726,0.4098802250422713,0.018224599132125617,0.5730542332306673,0.585845800518668,0.0364794138402748,0.24228506138033434,0.7423052181161292,0.2920659850075799,0.0657637667969282],[0.03558979432460968,0.8509670248096145,0.312511899754445,0.024822702115150874,0.45008653427643786,0.5420020903856374,0.8657361584991616,0.3005005191141723,0.4539774988995113,0.8210094115921881,0.6596985931415605,0.6692273580479395,0.3009242814235895,0.033381200048983324,0.8552910074844144,0.8805050590621721,0.8355396050457646,0.5514205232091313,0.3011941205417872,0.8377183434026495,0.7083299806449905,0.5609347545002232,0.560396317507528,0.8979419738875806,0.4918895765948525,0.5501010503116094,0.8257669212734242,0,0.8049120294495359,0.8250230635050027,0.5391422140224752,0.5572551311788176,0.5433323486045909,0.5980897284886038,0.30521324778525377,0.5602053191674694,0.829672819458707,0.8269355965092853,0.8418462434744995,0.5728674420039684,0.8199454134047117,0.8639815332338795,0.2999859091460446,0.5330261853643203,0.3112654752228832,0.06623650834258232,0.5441459713415637,0.21985210897696827,0.8215661952345368,0.5549660416229629,0.3434493194127912,0.8303624578781426,0.30154825025805715,0.2317025705110826,0.4723327660446179,0.4699916548396921,0.0038708573588303315,0.21090200837151563,0.26328283276546144,0.24575302777200583,0.5234030128023135,0.3125934598649762,0.8433264416774388,0.4812057846777378,0.8320571559419065,0.019163295809222183,0.8388608736480299,0.8389828551914211,0.44786837214671427,0.8049517547760657,0.5584862640494085,0.5765724115667358,0.5729259950400227,0.8192470251310711,0.5532365332737514,0.07453936424116572,0.5606841178017791,0.03441389114439097,0.8334165778369792,0.3156822652013474,0.4361155382352138,0.4241437996716398,0.8176431663227776,0.5466117381378727,0.5391747975452023,0.8639685775806099,0.8673821659398337,0.3075375085316857,0.8616036994884548,0.8738163157149903],[0.7747191280104858,0.46100405388561266,0.8728715230463243,0.7806047629601645,0.5651984096277771,0.8775379581905649,0.43636063302997813,0.9080789435291502,0.5419903036623335,0.17655483479114134,0.14462169979540362,0.3773934215164552,0.8755293553659319,0.7757831901653434,0.4718898262956231,0.23468928253175492,0.47989689514315403,0.32598316098842056,0.8956862629097907,0.41442475865515255,0.6603644074499224,0.4828319658198404,0.3188962408740198,0.19626509978326717,0.5399710028487325,0.6567050479077884,0.4616026567709733,0.8049120294495359,0,0.4720386461331852,0.8840557177130085,0.4370804919830719,0.8825096081203869,0.29214776695477546,0.8883881789130812,0.8894819369084367,0.4567220668939365,0.4372995039076183,0.45806555990025216,0.3154298019875788,0.4366275206386537,0.43601306990691974,0.6629077048589874,0.8651596872361818,0.8889766005394234,0.7407703858112953,0.8626349589747434,0.7007666315693012,0.4717950984137692,0.32645213464458356,0.5370646650704627,0.4794475988984153,0.8942800422748369,0.6948643146026618,0.33783879539827893,0.3360744034002684,0.8049120294495359,0.7038139630236283,0.5427294262467566,0.561025867444681,0.9001778316623538,0.8914950423408908,0.2136268310464164,0.32871430783460104,0.4292000167700856,0.8181533811897448,0.47328149568224825,0.13213843362747946,0.5334125430903542,0.0038708573588303315,0.4488259380330534,0.30612528305253633,0.3111426079143571,0.45584055393918854,0.4594016648507876,0.741339850720414,0.882580273899759,0.7890381376726836,0.1528917957898642,0.8951451200396322,0.5415038784969972,0.5627059657454333,0.4416895476385558,0.8631464224794223,0.8710835126085607,0.47322415307764426,0.6983540043214781,0.894818132982298,0.19608702887942886,0.43470816114787847],[0.7876591291940107,0.03184417564964692,0.7105311404342269,0.8109674270619155,0.3859472124988611,0.5834768914138498,0.06559752376099758,0.7565558894968691,0.3754657697260774,0.30138973585428425,0.4745782887325964,0.1715521045794265,0.7201857897556204,0.7898522452160944,0.03063128859871589,0.27736822626948177,0.009672542800776477,0.3290050742988173,0.7421243071532779,0.06473599785400894,0.25996757891419653,0.8231565998553244,0.32365277415480026,0.3341195292524407,0.3411862233782947,0.3629227431140495,0.009531890618811536,0.8250230635050027,0.4720386461331852,0,0.5923136207989419,0.776279666392862,0.5882649448603771,0.30151127097381186,0.7316534330837545,0.586766736759605,0.016640813064406627,0.03558979432460968,0.02506246261611223,0.31089672845876076,0.0341919143918377,0.06422824932698848,0.8566379020811821,0.574857688564404,0.7287354039347917,0.7595377710318004,0.5658565083607144,0.6232991582181446,0.0017901759011508737,0.3239480587697947,0.7431381332761242,0.006215734112159722,0.7403451594983721,0.6119452041495367,0.5536261422015177,0.5367315134538388,0.828160548252549,0.6311325837091099,0.6002547894074172,0.6108712092014275,0.619132535411026,0.7307330908508889,0.2739724618968449,0.5490781029969343,0.046411785406139036,0.8270844648308284,0.012531231308056116,0.6056679733956309,0.37904213612813076,0.47752586968252314,0.7887219895384037,0.3147117083684747,0.3146712039039795,0.014420556348782507,0.7963171422229656,0.7967366425354595,0.5787625164103579,0.8299175331721351,0.3306286664547423,0.7329630924924233,0.3914173864999613,0.40744419172272267,0.02864281441841398,0.5650372991950569,0.5779173203799312,0.039539244134868215,0.23102218283690776,0.7374050813270838,0.30330222943507956,0.0748326987182236],[0.512999798555106,0.6259466885000587,0.2412521637891892,0.5458164099136511,0.3208837540609178,0.007337965951580979,0.6579278993756955,0.2772304326357298,0.34414018393797574,0.7868407258666773,0.7844232049769342,0.5392606901537593,0.25517958232780685,0.5153971878009459,0.6229914724039645,0.8084973065692287,0.5973600627426999,0.5588179205579457,0.267332273013068,0.6443616582291499,0.34473257842723587,0.9328753886649408,0.5650203375382168,0.8546551211238256,0.3423010051463025,0.23866050417096638,0.6002547894074172,0.5391422140224752,0.8840557177130085,0.5923136207989419,0,0.9038424555095798,0.0038708573588303315,0.5901276350151979,0.2580814658194372,0.0197663965252321,0.6074616801580901,0.6181407857361537,0.6186807627541411,0.5672267454776615,0.6118433729416717,0.6563350711879664,0.7727790319940856,0.017239654958526567,0.25183422293250884,0.5095142729273267,0.024822702115150874,0.35033337386611957,0.5890899163198072,0.557627619879922,0.7331440782909339,0.5924862109407941,0.2659772957131836,0.34267334793729015,0.6915997445643316,0.675577943202477,0.5447062836023099,0.35730411705667,0.5245337169636729,0.5159452839044576,0.028695421182517826,0.2519984342794852,0.783833979386833,0.695535616127359,0.628702558811473,0.525658959286779,0.6052484152244039,0.9863561118671306,0.3544728196911706,0.8874822932060239,0.911839911263771,0.5766804517395914,0.5717286538468401,0.5978866872752806,0.9126550851779452,0.5716504187922379,0.023079742536850467,0.5682396123800966,0.8136069443896241,0.2510305807716122,0.3490477646201275,0.33035861889846413,0.6061373239241393,0.026000827525350007,0.012642683628720095,0.6311325837091099,0.4843010963802313,0.25975936318127885,0.8138898746477794,0.6675273630964822],[0.5435116260752352,0.7823089123800646,0.7747191280104858,0.5308916967207438,0.6144309117891347,0.901149065601394,0.7729672624157372,0.7903742913590864,0.5960320907529786,0.5689250889978061,0.32762164776961095,0.6130564160244042,0.7701472898484952,0.5431412503254011,0.7920029680437229,0.6406335961092853,0.7872469874660445,0.46120136691586017,0.7831340822698437,0.743286539724127,0.8433890082896687,0.046378531203279616,0.46339728829534615,0.6205245093603156,0.6215715910554069,0.7518377339226822,0.7694786021822176,0.5572551311788176,0.4370804919830719,0.776279666392862,0.9038424555095798,0,0.905066006780431,0.47628064739215975,0.780744016309823,0.9184716811814029,0.7681935934448973,0.7533203642423888,0.7755441093096322,0.47376694393416596,0.7490813884557651,0.7718351216752883,0.29467181759448646,0.88833237563729,0.7844232049769342,0.5160938201524671,0.8925885840666491,0.5852810818888742,0.774267079231831,0.4659530183676924,0.2120890249396359,0.7842132548208605,0.7824499063419532,0.5872021807571426,0.23604060472266303,0.2547302250453246,0.5543181063213131,0.5824383303406923,0.3855544162081761,0.39858937799485594,0.9058219441169948,0.7867431919373945,0.6072617633044421,0.23712957303722515,0.7504693439665933,0.5769795346546426,0.7844415474727934,0.38492925578417914,0.5833810593300457,0.43336988271521354,0.01086827929105434,0.4674545066986318,0.4689818401313808,0.7620004931020903,0.02064066384814587,0.48093366864710047,0.9142902534843435,0.5267363317351758,0.5597575014206995,0.7907302185537416,0.5821722276139559,0.593421101868027,0.751337910796278,0.8942317592089901,0.8954612728418311,0.7973444265776086,0.9510224338123869,0.7860682516830532,0.6045088648235738,0.775917125755576],[0.516993410700978,0.6218953926769522,0.24632846232086664,0.5498222528148329,0.3200484023923465,0.0032732061757312124,0.6539764496456464,0.2825549085313053,0.3432682606919863,0.7843498307137616,0.7835912285966051,0.536529142238438,0.2602673635135119,0.5193970255325341,0.6188744198730554,0.8055771708415057,0.5932433971177599,0.5575989757088742,0.27258019785186743,0.6405862036293645,0.34002093093007163,0.9343280476260054,0.5637354299167411,0.851930428119528,0.3408075873028311,0.2356832532125259,0.5962598759647705,0.5433323486045909,0.8825096081203869,0.5882649448603771,0.0038708573588303315,0.905066006780431,0,0.5885717300509942,0.26328283276546144,0.015098309773368896,0.6034825656278078,0.6142722725559985,0.614664895123765,0.5658113414306625,0.607997975002153,0.6523886968612616,0.7756739640685677,0.01584101198948628,0.25704969796129024,0.5132363061968188,0.02064066384814587,0.35338721943386014,0.5850517657011591,0.5563601440700314,0.7352254817565589,0.588384419999259,0.27121605106075497,0.3456008263738922,0.6920710109896915,0.6759705148427567,0.5488889986296548,0.3604319120281311,0.5263875644024233,0.5179654393655271,0.0341919143918377,0.2572353483118816,0.7810920413180051,0.6959399242560886,0.6248634489278041,0.529961378798068,0.6011590328808126,0.9853177508149282,0.3537164027007481,0.8859638113366004,0.913122824528481,0.5752826819300898,0.5703411919821374,0.5939404494881523,0.9140033474560267,0.5753382134895085,0.017573537109947416,0.5722787919395138,0.8112020036524777,0.2562995526827663,0.34847181826867385,0.32997245536745934,0.602271518083002,0.021482110813810486,0.009672542800776477,0.6269923859822539,0.47905786923625193,0.265012105505599,0.8112020036524777,0.6635703078745322],[0.5626719018124859,0.31230280530246723,0.5963322131132311,0.5782378664349932,0.27304118265201494,0.5836000810408053,0.3104197859687065,0.6354847870964541,0.2501417054449779,0.22861457323766604,0.21232114835509325,0.1351202486437018,0.6008932197512344,0.5643839085905898,0.321022769177518,0.28177052237113986,0.3127921740456544,0.04530199958359871,0.6221573947230259,0.2796263867892848,0.3956329060615961,0.5223279601960721,0.03618518967546477,0.30620333183726844,0.24606354045813408,0.36519588383477825,0.2959015975357671,0.5980897284886038,0.29214776695477546,0.30151127097381186,0.5901276350151979,0.47628064739215975,0.5885717300509942,0,0.6137830944775184,0.5956057652267649,0.29570775972322133,0.28325282704888866,0.3045862830253253,0.025476971064350148,0.27803327228409286,0.30898456678003566,0.5661274345056472,0.571225527827145,0.613468045420666,0.5300849126723561,0.5687257114989593,0.4431900852001615,0.2991777403014551,0.04249633007213112,0.4465586548229548,0.30927317062966936,0.6206068989990321,0.4348696532059914,0.2503705726499551,0.23367070152259703,0.5997755220048417,0.44827086917502784,0.34061577240046986,0.3557523670348989,0.6065167582438127,0.6159268736079798,0.24543564379953073,0.24577891870437166,0.28267322484804724,0.6060318834661821,0.3110811561659446,0.40114259047865686,0.24259998037023467,0.2956269566827122,0.4885252452161853,0.0197663965252321,0.023841242323316834,0.2883122338616568,0.49558886353114495,0.5513973508671509,0.5887427003844495,0.5929363274828385,0.24741105449776732,0.6193183121794527,0.25183422293250884,0.27355377602588926,0.27922752936580486,0.5692534887780598,0.5771456250666772,0.3274854186103454,0.47827746073905153,0.6202283315164467,0.2670105627561397,0.31557625511303333],[0.28842820303975325,0.7636037124469143,0.0197663965252321,0.319011143747804,0.35825331962839113,0.2636452846330318,0.7890077443058254,0.02327228671496136,0.3766108356533914,0.8405061339674369,0.7604548666902861,0.6209492141345149,0.011118966106247984,0.2904200560332262,0.7640746088460716,0.8818117067723016,0.7397684483514614,0.5703411919821374,0.00909903899301251,0.7674544704842443,0.5329722527918266,0.798680727771709,0.5788701490829716,0.916500266304252,0.400501823437138,0.3783346131963004,0.7365136127783898,0.30521324778525377,0.8883881789130812,0.7316534330837545,0.2580814658194372,0.780744016309823,0.26328283276546144,0.6137830944775184,0,0.2795124852333622,0.7425442115892867,0.7472182231249512,0.7549631481071357,0.586753123943453,0.7401508125678963,0.7872408950873615,0.5826001273733319,0.2585311936458365,0.004664395102548556,0.2971745593510873,0.2717496390579666,0.19881339226108116,0.7280968334608019,0.5714715557170128,0.5797773344540442,0.7344271451473184,0.007337965951580979,0.2005076219061247,0.6137856975169415,0.6025817985653863,0.31085060453283375,0.1996185360873887,0.39868541722798717,0.3832974245854131,0.23500753641740663,0.005590908427729459,0.849673263884259,0.6205013353090411,0.7557588797950765,0.2878921478409982,0.7458820988578094,0.962837267147091,0.3795214933116771,0.890366035819947,0.7858261895169149,0.5944539699068636,0.5895317789875958,0.7319024482631566,0.7837381119875644,0.3568888886781337,0.28248164041917806,0.3391196723576368,0.8618709064368799,0.008950879505754369,0.367962411873423,0.3466095145098129,0.7357644679133787,0.2742570377478998,0.26297435855533524,0.7729672624157372,0.6916367182118774,0.004664395102548556,0.8757192837842865,0.7984204543446781],[0.5338105891035204,0.6203699993806284,0.2627745659371689,0.5666435297811475,0.3292036178093945,0.016899809211729403,0.65285881835612,0.2984901538653491,0.3523028161436903,0.7885030436662266,0.7924993927664253,0.5399976214589195,0.27669583832736383,0.5362165077541552,0.6170671859742436,0.8082975517819208,0.5914499169206386,0.5655713318238855,0.28870964973166485,0.6401944581882283,0.3356093060639716,0.9481440250171572,0.5715274564223253,0.8553003552344967,0.34820638155893724,0.23873379707133968,0.5949858439775194,0.5602053191674694,0.8894819369084367,0.586766736759605,0.0197663965252321,0.9184716811814029,0.015098309773368896,0.5956057652267649,0.2795124852333622,0,0.602271518083002,0.6135149224360178,0.6132935273542375,0.5732465368949509,0.6073380551085834,0.6512928841817869,0.7916132791775211,0.028695421182517826,0.27325099540858777,0.5299191899261191,0.025476971064350148,0.3695364967168611,0.5836000810408053,0.5642027491832612,0.7500879648937089,0.5866578254128804,0.28736618208139536,0.36161994130597636,0.7040251262389953,0.6877622509131084,0.5657605243378231,0.37665317896595657,0.5409284503148202,0.532765460855562,0.046411785406139036,0.27339078170602527,0.7844232049769342,0.7077520891650739,0.6242213082924271,0.5468483594133007,0.5994797833468479,0.9936538709155859,0.36302817178815816,0.8930130914341684,0.9266365378230877,0.5827618796224856,0.5778509783747607,0.5928716610391196,0.9276352924857058,0.5919979747653044,0.006215734112159722,0.5891116105414901,0.8156226458963731,0.27238156075605974,0.3582310665614933,0.340203708859543,0.6015309745127762,0.024641454526035656,0.021550862179886318,0.6250807578169623,0.47132117450375066,0.2811312533722804,0.8147047155174579,0.6624253965868832],[0.7923420234038977,0.0197663965252321,0.7215139980882622,0.8151285038584756,0.3940371069164046,0.598666418132245,0.04887528112240844,0.7673857271994394,0.38266025834970174,0.2848392923187525,0.4631733381635101,0.1695624839387128,0.7309583645259573,0.794506144404398,0.024641454526035656,0.2593608416347233,0.021482110813810486,0.3253225292304615,0.7529531643065628,0.046411785406139036,0.27725914525386736,0.8152912899944152,0.3195700836539188,0.3161613930311317,0.3492486661356282,0.3763736254853718,0.005804897214172254,0.829672819458707,0.4567220668939365,0.016640813064406627,0.6074616801580901,0.7681935934448973,0.6034825656278078,0.29570775972322133,0.7425442115892867,0.602271518083002,0,0.017982963211329063,0.010741055406905243,0.3065621017979979,0.018620969789818424,0.04736637235871226,0.8547393096597771,0.5898731154080521,0.7397425182171478,0.763790012759024,0.5810598675641736,0.6302331943700054,0.018620969789818424,0.3202872953791587,0.7399434530477791,0.022093749587698715,0.7511783229357861,0.6189905851462792,0.5477967413403638,0.5311683708523636,0.8327083418982697,0.6379466593328974,0.6013609725121905,0.6124280196377133,0.6340247619577384,0.741770973176704,0.2566965949498386,0.5430000885685486,0.028218640498937908,0.8321801326388103,0.015192923878792742,0.590501093312297,0.3856909063703891,0.46223847369625765,0.7806825840634178,0.3098650013011783,0.31011169409220796,0.008950879505754369,0.7884401868866264,0.7998249269056039,0.5942711965990713,0.8337925240886045,0.31389555588813445,0.7440668003810077,0.3981408899654239,0.4147787942410785,0.015098309773368896,0.5802840799941252,0.5930494768433033,0.03278386348368065,0.24873852962387755,0.7483533392428808,0.28578251296371326,0.05838743310318991],[0.7896619567734728,0.02735177642914532,0.7263186209567587,0.811865941843618,0.3956933797626328,0.609415307591008,0.04000190130970851,0.7719676697810018,0.38330158560285293,0.2650961736569436,0.44594709664069954,0.16153823711317625,0.7354885040654076,0.7917930040359953,0.036937250121045706,0.23998963197898612,0.04121132488457049,0.3147471455232317,0.757542006810214,0.02800428906645665,0.2919296311600879,0.8005801630920432,0.3086337585257511,0.2967401070085045,0.35098804817981505,0.38482979943490847,0.024275178661889406,0.8269355965092853,0.4372995039076183,0.03558979432460968,0.6181407857361537,0.7533203642423888,0.6142722725559985,0.28325282704888866,0.7472182231249512,0.6135149224360178,0.017982963211329063,0,0.02064066384814587,0.2954275485928569,0.005370527703452622,0.03823937416540211,0.8452808827573087,0.6003585803990845,0.7445671990219885,0.7606566478261825,0.5918414384405883,0.6302027701131431,0.03677139314468105,0.30974672511155865,0.7293208181618406,0.04176668367550266,0.7557736860237335,0.6190989864591073,0.5349283242483501,0.5185477849717106,0.8298578065466302,0.6377713045464145,0.5950368574741909,0.6065562690421897,0.644294698590205,0.7466339622638116,0.23694842325980586,0.5299191899261191,0.009672542800776477,0.829932945798607,0.0341919143918377,0.5711220527327148,0.38569917695623807,0.4428262374984547,0.7658425943024036,0.298244586877853,0.29875684692977156,0.021550862179886318,0.773727992021397,0.7954191924845092,0.6055255144446445,0.8302103242519483,0.294130828104481,0.7490130971388487,0.39820499047125363,0.4155090039916441,0.01021868911881502,0.5911338110901239,0.603712840711356,0.04253249708997866,0.2683129024217395,0.7530975185351652,0.2660969522888289,0.04947266054778454],[0.8045226176754348,0.007337965951580979,0.7339220276867376,0.8272178436027651,0.4065622496446917,0.6098634449001497,0.038795918948311185,0.7798117751838106,0.395148784779104,0.2846435625280493,0.46833128467657636,0.180289282953492,0.7433897615604599,0.8066818811675893,0.014714430405883964,0.25611944167362133,0.024641454526035656,0.3351530780358513,0.7653790491622087,0.04328530153366829,0.28678373618592434,0.8227660878855206,0.32923266296867915,0.3130060336501251,0.36177423218907334,0.3882587130307023,0.016899809211729403,0.8418462434744995,0.45806555990025216,0.02506246261611223,0.6186807627541411,0.7755441093096322,0.614664895123765,0.3045862830253253,0.7549631481071357,0.6132935273542375,0.010741055406905243,0.02064066384814587,0,0.3161261135182506,0.024822702115150874,0.03747144674930138,0.8651134790397619,0.6011590328808126,0.7521480954513322,0.7758985822035126,0.5922488865680572,0.6426930390495618,0.02800428906645665,0.3301318022627767,0.7498129963024224,0.02757089193790262,0.7636037124469143,0.6314590876367776,0.5564835768971396,0.5399976214589195,0.8448646167210901,0.6503967275291209,0.6127644611081873,0.6239524882330401,0.6453726494301816,0.7541729377480582,0.2552606325610883,0.5515595368831119,0.027075543158591064,0.8444235298711055,0.01584101198948628,0.5919574951894674,0.3981408899654239,0.46361424481298674,0.7880588837788456,0.3191909091486775,0.3195700836539188,0.021482110813810486,0.7959134912347726,0.8117005005321418,0.6052906480356718,0.845827394301682,0.31336214382828587,0.756460799743187,0.4105957953541977,0.42727357331845967,0.02402810811364684,0.5914499169206386,0.6042762483174327,0.021550862179886318,0.25198580640983287,0.7607659236477718,0.28378636875491337,0.04798186546956666],[0.537243054451085,0.3241988403925797,0.5693853568983946,0.5533491150502706,0.2483032279874088,0.5608664101094119,0.32498435723336977,0.6083867566242566,0.22522361051567327,0.25580238924768084,0.22677119390979716,0.13967903393918182,0.573859250060432,0.5389881562471691,0.33239783600805983,0.30812231306812005,0.3223058322776642,0.019988253887175893,0.5950878666108814,0.2942336921856731,0.3855875091484624,0.5189787322445987,0.011843397581599637,0.33335064304737105,0.22326704751181697,0.3456192761589323,0.30612528305253633,0.5728674420039684,0.3154298019875788,0.31089672845876076,0.5672267454776615,0.47376694393416596,0.5658113414306625,0.025476971064350148,0.586753123943453,0.5732465368949509,0.3065621017979979,0.2954275485928569,0.3161261135182506,0,0.2898107408397068,0.32347547471364446,0.5496130621845878,0.5483882858216932,0.5864780776078347,0.5048422553863794,0.5462522289924359,0.41600021526181385,0.3083445596553199,0.016111583110357864,0.43216042641976027,0.31847124212285693,0.5935422337849715,0.4076438344865083,0.24275728778743805,0.22524478487047708,0.574649244038972,0.42111969985470854,0.3172430779835629,0.33194201909494164,0.5829866135296435,0.5889407469786401,0.27205407968080475,0.2390333993848645,0.2957993099793707,0.5804822516776824,0.3213006199701632,0.4206344417561687,0.21723402306656878,0.318696311667071,0.4858118092738728,0.007850216360307107,0.0035803518023017475,0.2985381760946131,0.49240862497319865,0.5274392323689208,0.5664969274263333,0.568397007745026,0.27467465858221163,0.5923459852694598,0.22611827041545726,0.24773876921332846,0.29045295579861174,0.5468483594133007,0.5544131840656895,0.3393029332352768,0.4765922568362465,0.5932003091854077,0.29402792825462426,0.33070578261465594],[0.7826664563934069,0.03259798020463118,0.719259699403833,0.8049199746713394,0.38853385954977576,0.6031330153471673,0.047072117014866695,0.7648943241252142,0.37614474610556714,0.26543218178405636,0.44298838462464235,0.15513382944302637,0.728412896894597,0.7848001592014393,0.04132296895161507,0.24220626812402046,0.04150840268846204,0.30898456678003566,0.7504693439665933,0.03241108666804955,0.286822602481128,0.7962709636482305,0.30296591196157713,0.29883680871414764,0.34382969760832266,0.37817439554678495,0.02327228671496136,0.8199454134047117,0.4366275206386537,0.0341919143918377,0.6118433729416717,0.7490813884557651,0.607997975002153,0.27803327228409286,0.7401508125678963,0.6073380551085834,0.018620969789818424,0.005370527703452622,0.024822702115150874,0.2898107408397068,0,0.04530199958359871,0.8392972572605306,0.5940238258218693,0.7375091243399997,0.753697990606191,0.5855676012225147,0.6230632793121932,0.03472239150977654,0.30397375461183584,0.7236177273570591,0.0411740457264701,0.7487014391506398,0.6119556474206785,0.5298890529679737,0.5134229460664811,0.8228768488706583,0.6306361775980402,0.5884495780636101,0.5999033639723157,0.6379140970785081,0.7395782729721511,0.23807335473350458,0.5249536830159294,0.015098309773368896,0.8229059940258978,0.03558979432460968,0.5703607965041244,0.37855374903225597,0.44213374432727426,0.761589191794908,0.29276856771831594,0.29320343728944637,0.018620969789818424,0.7694183502986426,0.788588196490179,0.5993518512985377,0.8232944977195362,0.29465019697066136,0.7419627423226087,0.39105861296143823,0.4083515861130945,0.004664395102548556,0.5848742571347713,0.5974135482712917,0.04772364301995364,0.26678990917906087,0.7460342461766452,0.26752868454417583,0.05649372875944152],[0.8267654285326449,0.03296875271312213,0.7663454955539867,0.8485056883965795,0.43524745808573595,0.6475601981850062,0,0.811986062667333,0.4225155019917947,0.2595632439004761,0.457619328071662,0.1952267949859455,0.7755049425054779,0.8288707326974478,0.04147137952770333,0.22428997558360764,0.0630774598737218,0.3436024488125342,0.7975609507588718,0.02757089193790262,0.32598316098842056,0.8194655791542497,0.3369317307310496,0.2810406206292273,0.39058926671624855,0.4241738946321502,0.05482015669866117,0.8639815332338795,0.43601306990691974,0.06422824932698848,0.6563350711879664,0.7718351216752883,0.6523886968612616,0.30898456678003566,0.7872408950873615,0.6512928841817869,0.04736637235871226,0.03823937416540211,0.03747144674930138,0.32347547471364446,0.04530199958359871,0,0.8747546059130471,0.6386826251636968,0.7845943849667123,0.7974226226321374,0.6299618596989772,0.6690004632256916,0.06698613631041324,0.33868697384928387,0.7570163778341851,0.06661234923724997,0.7957929588106336,0.657966760040488,0.5586807071848064,0.5428618322309988,0.8668160109211188,0.6764951651786386,0.6288931386531369,0.6408929456594291,0.6827619468231124,0.786661904446486,0.22741526667713216,0.5532278721912066,0.030482679117346274,0.867337919552662,0.054136707105967186,0.5698340415966512,0.42464761010600965,0.441628119599818,0.7844293191897684,0.3254253817721044,0.326403314489551,0.056658450438801654,0.7926466461095044,0.8310746125945134,0.6432944378933616,0.8665780050263073,0.28722761095253724,0.7890421900333431,0.4371681098656327,0.45473626913870374,0.049877414401011455,0.6292055649856647,0.6419168526988198,0.03859803334788892,0.2865170833014229,0.7931225113727761,0.254430215702253,0.009531890618811536],[0.30053762202875595,0.8735490941055115,0.5836657715763164,0.2768453980921354,0.5627400276229522,0.7729651941980756,0.8762833479750449,0.5844398173250464,0.5536405669133877,0.7425894179390237,0.5222912718042058,0.6835386349667706,0.5749827191205835,0.2991777403014551,0.881027950220543,0.8126828075628003,0.8680842758784044,0.5293643961709893,0.5814721001214715,0.8455702563055896,0.8310034245275006,0.2825549085313053,0.5360973611058875,0.8108195498851516,0.5900437097944332,0.6967661893106863,0.8533688136751144,0.2999859091460446,0.6629077048589874,0.8566379020811821,0.7727790319940856,0.29467181759448646,0.7756739640685677,0.5661274345056472,0.5826001273733319,0.7916132791775211,0.8547393096597771,0.8452808827573087,0.8651134790397619,0.5496130621845878,0.8392972572605306,0.8747546059130471,0,0.7615661019905732,0.5877895200089234,0.28466593841578197,0.7697507158501466,0.42093400279429644,0.853728500438796,0.5342890498059445,0.1256648166983701,0.8637242346677085,0.5813484609529184,0.4283179793649008,0.338178320710546,0.34817891109850174,0.29553535335682785,0.41436700690524025,0.2787709979860082,0.277591995976344,0.7651910456461437,0.5896618351376044,0.7751420403581134,0.34643009895074517,0.8464510080414731,0.3209383742838206,0.8683255528711527,0.6512708019558028,0.5424497967179086,0.660923174520217,0.2914109082257168,0.5482135113212998,0.5468950873491935,0.8458935569013911,0.28324720550876026,0.22966925326256774,0.7897611553928506,0.264519173397306,0.744247240297499,0.593326871109032,0.5351253300834463,0.5354803550306938,0.8392953521474235,0.7719241799368339,0.7685368880569211,0.8884475785564749,0.9719733685588532,0.5864780776078347,0.7832790101442814,0.8821018106137171],[0.5059890451527708,0.6084917902230318,0.24073076181629,0.5388459101056748,0.30243440460465176,0.011242501380369266,0.6402843062877368,0.2787709979860082,0.32566035198322807,0.7678480637391857,0.7659803510496753,0.5203523045509979,0.25471148474156186,0.5084130965766573,0.6056679733956309,0.7896801778601404,0.5800390244898753,0.5400892977742648,0.2681704867986803,0.6264289457851818,0.3290970970790043,0.9178411488311977,0.5462522289924359,0.8357386020852201,0.3234212806045178,0.21991716500980515,0.5826960874983743,0.5330261853643203,0.8651596872361818,0.574857688564404,0.017239654958526567,0.88833237563729,0.01584101198948628,0.571225527827145,0.2585311936458365,0.028695421182517826,0.5898731154080521,0.6003585803990845,0.6011590328808126,0.5483882858216932,0.5940238258218693,0.6386826251636968,0.7615661019905732,0,0.2524211054203947,0.5013479889897562,0.011843397581599637,0.33977707487945047,0.5716140917455641,0.5388696203948529,0.7196040684546503,0.5751354974471506,0.2667362092714802,0.3317018652168597,0.6747447484771114,0.6586003517335911,0.5385524091750494,0.34699563455857607,0.5104535730298747,0.5022802544839379,0.04296422162762097,0.25277384437181977,0.7649256733722506,0.6785755901169922,0.6108712092014275,0.5200975297625162,0.587871048635555,0.96775163977326,0.33609337336627537,0.8685980601527391,0.8964500940471475,0.5578509940976306,0.552904428341093,0.5802400326790622,0.8974004065213441,0.5633216009104485,0.02651499039875515,0.5614100879168453,0.7945966915013855,0.25209943462580997,0.3308406928746482,0.3123538167820564,0.5883518382692752,0.014221644125470318,0.005370527703452622,0.6138559754210904,0.47109081151372645,0.2606584031929632,0.7949587769864549,0.6498928662334202],[0.29419579905169374,0.7607659236477718,0.016466107804312832,0.32488627092375066,0.3565894475064132,0.2574455913177581,0.7863590347631206,0.02735177642914532,0.3751895862570918,0.8398152879097888,0.7615996869296441,0.6192254307421275,0.012642683628720095,0.2962028724043637,0.7611545665044331,0.8806812063121312,0.7367870240772627,0.5702263520033871,0.014221644125470318,0.7649737397283248,0.5286126914776276,0.8026524106851387,0.5787183536434446,0.915688508815154,0.39858937799485594,0.37449185316312317,0.733675875011873,0.3112654752228832,0.8889766005394234,0.7287354039347917,0.25183422293250884,0.7844232049769342,0.25704969796129024,0.613468045420666,0.004664395102548556,0.27325099540858777,0.7397425182171478,0.7445671990219885,0.7521480954513322,0.5864780776078347,0.7375091243399997,0.7845943849667123,0.5877895200089234,0.2524211054203947,0,0.3025871106149201,0.26566593808274414,0.20145589803023092,0.7251821616105518,0.5713010248886315,0.5840132613676019,0.7314502264863583,0.012642683628720095,0.20279959744291978,0.6160799013075877,0.6047281827274709,0.31690638854620107,0.2025174477591619,0.40175851674303203,0.3865170929848902,0.22864934344070692,0.0007415151372901692,0.8486922313759034,0.622734951762381,0.7531675628454362,0.29402792825462426,0.7429509699507818,0.9641901337500314,0.3783051044932292,0.8909926402404653,0.789582993883297,0.5942416250621207,0.589306822707041,0.7291125784464126,0.7875657563286694,0.36247872970448125,0.27626396521008106,0.3450792145026596,0.8613382662817157,0.004664395102548556,0.36682960340999915,0.3453978140298781,0.7330852082841103,0.2681704867986803,0.25682054564788537,0.770039342244287,0.6870391776915864,0.007337965951580979,0.8748661096754032,0.7957869317112763],[0.032176023658736355,0.7850099527476582,0.2998584474874579,0.04975321328314562,0.38910816742698967,0.5113536835466118,0.7991710131818939,0.29807363906095347,0.39143776153235577,0.7534052405482279,0.5962732723931053,0.6021760150961187,0.2902774475586548,0.033381200048983324,0.789540472140353,0.812606076749943,0.770157668630312,0.48340033695380497,0.29551379553130225,0.7709460481652861,0.6520824465178244,0.5247102652442408,0.4923794429726033,0.8304414023424619,0.4297647627820519,0.49628424674482136,0.7600259043208283,0.06623650834258232,0.7407703858112953,0.7595377710318004,0.5095142729273267,0.5160938201524671,0.5132363061968188,0.5300849126723561,0.2971745593510873,0.5299191899261191,0.763790012759024,0.7606566478261825,0.7758985822035126,0.5048422553863794,0.753697990606191,0.7974226226321374,0.28466593841578197,0.5013479889897562,0.3025871106149201,0,0.5114941832293539,0.1696653170453386,0.7561035783524694,0.4869409597788394,0.3033810002282513,0.765015534110575,0.29546528470755745,0.1807726611534862,0.41169008128135176,0.40811319860675577,0.06823293834196069,0.16094853096465575,0.19714500894544815,0.1792655632649426,0.4970011484319246,0.30435084020949543,0.7754698968498589,0.42039539896876077,0.7655857998306052,0.07593315130542612,0.7732877694306016,0.7793667760505912,0.38465568923271054,0.7409775144754441,0.5185939749640378,0.5085638250387884,0.5049086693286488,0.7534222146647132,0.5143551330717704,0.060481189958642385,0.5295091808286284,0.07037412174820397,0.7661118230733563,0.3079154288735222,0.37319506054233975,0.36250072329880195,0.7515166090624011,0.5138799282564608,0.5078789081017581,0.7981701115749177,0.8095545933974583,0.3007707361652581,0.793928412729202,0.8071633557630148],[0.5167122631672455,0.599487778196088,0.2537789872986907,0.5495752831952602,0.30193889874724,0.01584101198948628,0.6315501749707819,0.29214776695477546,0.3250431948894841,0.7629313983129901,0.7652578966199957,0.5148299007776236,0.26776062274744294,0.5191479354210623,0.5964875744507918,0.783656513494822,0.5708562878016314,0.5384545400978561,0.28144823958749116,0.6181614633696956,0.3182159719415713,0.9226341953153103,0.5444482006627778,0.8302180278889533,0.3211964539333685,0.21377554836267887,0.5738397646870717,0.5441459713415637,0.8626349589747434,0.5658565083607144,0.024822702115150874,0.8925885840666491,0.02064066384814587,0.5687257114989593,0.2717496390579666,0.025476971064350148,0.5810598675641736,0.5918414384405883,0.5922488865680572,0.5462522289924359,0.5855676012225147,0.6299618596989772,0.7697507158501466,0.011843397581599637,0.26566593808274414,0.5114941832293539,0,0.34863189831980834,0.5626406747346627,0.5371122413458457,0.7259333927390209,0.5659919875927623,0.28000193527385336,0.34028803496492854,0.6772554241180968,0.660925592401122,0.549653744355512,0.35600324896237623,0.5163629335726109,0.5085858025536575,0.05416535083793838,0.26604909607332666,0.7593630611091812,0.6809219858969248,0.6024333081295389,0.5314569212445306,0.5787625164103579,0.9664848415124578,0.335761245044694,0.8661424144678227,0.9008455563057751,0.5557569399867804,0.5508380236407453,0.5715134817569975,0.9019508332908536,0.5733552018285775,0.019988253887175893,0.5721978402409036,0.7898987981895499,0.26542018876932133,0.3309755484391732,0.312995853154042,0.5798407017911811,0.0007415151372901692,0.01086827929105434,0.6046145701010583,0.4587862855134132,0.27394921824897844,0.7895343974191241,0.6411447138383268],[0.1850153441581904,0.6517834078051571,0.18956614671240402,0.21606768533428514,0.2374579760057607,0.3508517579255118,0.6707872725226249,0.21348545443555045,0.24606354045813408,0.6735903098339732,0.5671619732564116,0.48211725183551374,0.1870288341251371,0.18753732430083014,0.654794511439065,0.7233260918666743,0.6331597535404005,0.3969411161337397,0.20340178190487992,0.6448822187461966,0.48728181765172823,0.6065035874073839,0.40596143941918417,0.7511272476763494,0.2815387419392799,0.3284815103529041,0.6254998233980384,0.21985210897696827,0.7007666315693012,0.6232991582181446,0.35033337386611957,0.5852810818888742,0.35338721943386014,0.4431900852001615,0.19881339226108116,0.3695364967168611,0.6302331943700054,0.6302027701131431,0.6426930390495618,0.41600021526181385,0.6230632793121932,0.6690004632256916,0.42093400279429644,0.33977707487945047,0.20145589803023092,0.1696653170453386,0.34863189831980834,0,0.6197515753633637,0.39908933018215853,0.3930115986569082,0.6278455081235663,0.2023605294382693,0.01021868911881502,0.41353449128564984,0.40278165654909653,0.22448834125982284,0.007160703604603495,0.199427506598954,0.1851096752276519,0.34255703406470567,0.20391653695051562,0.6884520671289911,0.42040678502764234,0.6367282026075214,0.2149616135690154,0.637493143347246,0.7672294696078759,0.24278349585349643,0.7022657735114084,0.5911473233333085,0.4223304160701611,0.417756939339312,0.6195556127732578,0.5898460324103995,0.22861457323766604,0.36806640397835244,0.23877376560508096,0.6917453169020817,0.20790507201028532,0.23031218775807855,0.21422850382949235,0.6199345898736338,0.35089265053192326,0.3466509049809245,0.6636786710100165,0.6471331555316621,0.20475609621723084,0.7115898668680181,0.6795146477589507],[0.7842010229861072,0.03511524574325079,0.7069770662938004,0.8075376379765206,0.3823767341421127,0.5802593037895587,0.06839293913803277,0.7529977472354047,0.37191520719256266,0.3016433191523326,0.47325788485980586,0.16875637866706297,0.7166259482043214,0.7863956292275265,0.0341919143918377,0.2784452656418278,0.012642683628720095,0.3263593701400073,0.7385660650116281,0.06626005921198919,0.2572353483118816,0.8211028841057663,0.321062476787998,0.3351483224095914,0.3376169775993713,0.3594973038225568,0.011118966106247984,0.8215661952345368,0.4717950984137692,0.0017901759011508737,0.5890899163198072,0.774267079231831,0.5850517657011591,0.2991777403014551,0.7280968334608019,0.5836000810408053,0.018620969789818424,0.03677139314468105,0.02800428906645665,0.3083445596553199,0.03472239150977654,0.06698613631041324,0.853728500438796,0.5716140917455641,0.7251821616105518,0.7561035783524694,0.5626406747346627,0.6197515753633637,0,0.3213006199701632,0.7403883407939255,0.008336588252613299,0.7367870240772627,0.60839463477131,0.551255399086964,0.5343219282916629,0.8247090477141248,0.6275884199311274,0.59