"trial_id","rt","stimulus","response","trial_type","trial_index","plugin_version","time_elapsed","participant_number","success","raw_payload","placements","dissimilarity_vector","n_words","trial_category","distance_matrix","value"
"consent_form","41928","
    <div style=""max-width:800px; margin:0 auto; text-align:left; font-size: 16px; padding: 10px 0;"">
      <h1>Informed Consent Form</h1>
      <p>You are being invited to participate in a research study titled <strong>""Reproducibility of Psychological Science and Instruction.""</strong> This study is being done by Dr. Bria Long from UC San Diego and associated graduate students in the Experimental Methods course. You were selected to participate in this study because you are an adult in the U.S. and have been a represented population in previous psychology studies.</p>
      
      <p>The purpose of this study is to better understand how well previously published studies in the psychological field replicate online and with different populations. Your participation in this research should last approximately <strong>5-30 minutes</strong>. If you agree to take part in this study, you may be asked to view a set of stimuli, including pictures, sounds, written text, or videos and then giving some responses via key-presses, verbally, or with paper-and-pencil. We may also observe your choices or preferences among an array of stimuli. These stimuli will be taken directly from or closely adapted from studies that already exist in the published psychological literature. Stimuli will include, e.g., pictures of objects and human faces, audio and video clips, short text passages, etc. None of the stimuli will be disturbing, threatening, or offensive. The online and in-person experiments described in this protocol will take no more than 30 minutes. An example game you might play would be to click on an image on the screen that matches a word you hear being said out loud. Your total expected time commitment for this study is between 5-30 minutes, and is specified in the study description.</p>
      
      <p>Your participation in this study is completely voluntary and you can withdraw at any time. Choosing not to participate or withdrawing will result in no penalty or loss of benefits to which you are entitled. You are free to skip any question that you choose.</p>
      
      <p>We will not be asking for any personally identifying information, and we will handle responses as confidentially as possible. Your SONA or Prolific IDs will never be tied to your responses on this survey. However, we cannot guarantee the confidentiality of information transmitted over the Internet. To minimize this risk, data containing anything that might be personally identifying (e.g. Prolific IDs or IP addresses) will be encrypted on transfer and storage and will only be accessible to qualified lab personnel. We will be keeping data collected as part of this experiment indefinitely. This anonymized data (containing neither Prolific IDs nor IP addresses) may be shared with the scientific community or with other participants to be used as stimuli in future studies.</p>
      
      <p>If you have questions about this project or if you have a research-related problem, you may contact the researcher(s), <strong>Dr. Bria Long, <a href=""mailto:brlong@ucsd.edu"">brlong@ucsd.edu</a></strong>. If you have any questions concerning your rights as a research subject, you may contact the UC San Diego Office of IRB Administration at <a href=""mailto:irb@ucsd.edu"">irb@ucsd.edu</a> or 858-246-4777.</p>
      
      <h3 style=""margin-top: 25px;"">Consent Statement</h3>
      <p style=""font-weight: bold;"">By participating in this research you are indicating that you are at least 18 years old, have read this consent form, and agree to participate in this research study. Please keep this consent form for your records.</p>
    </div>
  ","0","html-button-response","0","2.1.0","41929","w86rafljb8_f4e94i","","","","","","","",""
"","58799","","{""participant_date"":""11/25/2025"",""participant_time"":""3:30 PM""}","survey-html-form","1","2.1.0","100728","w86rafljb8_f4e94i","","","","","","","",""
"","5160","
    <div style=""display:flex; align-items:center; justify-content:center; height:100vh; font-family:sans-serif;"">
      <div style=""max-width:900px; margin:0 auto; text-align:center;"">
        <h1 style= ""font-size: 24px;"">Welcome! Thank you for participating in the study.</h1>
        <h2 style= ""font-size: 22px;"">The study will be in Madarin Chinese.</h2>
        <h2 style= ""font-size: 22px;"">Please use desktop computers or laptops for the study. Tablets and phones are not allowed.</h2>
        <p style=""font-size:16px; margin-top:30px;""><em>Press any key to continue.</em></p>
      </div>
    </div>
  "," ","html-keyboard-response","2","2.1.0","105890","w86rafljb8_f4e94i","","","","","","","",""
"","17763","
    <div style=""display:flex; align-items:center; justify-content:center; height:100vh; font-family:sans-serif;"">
      <div style=""max-width:900px; margin:0 auto; text-align:center;"">
        <p style=""font-size:18px; line-height:1.6;"">
          In this task, you will be presented with <strong>90 words</strong> arranged <strong>outside a circle</strong>.<br>
          Your job is to <strong>drag these words into the circle</strong> and <strong>rearrange them</strong> based on their <strong>meaning similarity</strong>.<br><br>
          Words that are <strong>similar in meaning</strong> should be placed <strong>closer together</strong>.<br>
          Words that are <strong>different in meaning</strong> should be placed <strong>farther apart</strong>.<br><br>
          You can place the words <strong>anywhere inside the circle</strong>. There is no single correct answer — 
          we are interested in <strong>your personal judgment</strong> of how these words relate to each other.<br><br>
          <strong>You must move all words into the circle before you can finish.</strong><br>
          After the initial arrangement, you will arrange words from specific categories.
        </p>
        <p style=""font-size:16px; margin-top:30px;""><em>Press any key to continue.</em></p>
      </div>
    </div>
  "," ","html-keyboard-response","3","2.1.0","123654","w86rafljb8_f4e94i","","","","","","","",""
"","6122","","","fullscreen","4","2.1.0","130779","w86rafljb8_f4e94i","true","{""placements"":[{""word"":""骄傲"",""x"":314,""y"":422.8,""cx"":333,""cy"":440.2,""angle_rad"":1.757,""angle_deg"":100.7},{""word"":""冰箱"",""x"":496,""y"":374.8,""cx"":515,""cy"":392.2,""angle_rad"":0.25,""angle_deg"":14.3},{""word"":""兔子"",""x"":48,""y"":231.8,""cx"":67,""cy"":249.2,""angle_rad"":-2.799,""angle_deg"":199.6},{""word"":""反感"",""x"":328,""y"":344.8,""cx"":347,""cy"":362.2,""angle_rad"":1.811,""angle_deg"":103.8},{""word"":""协议"",""x"":406,""y"":542.8,""cx"":425,""cy"":560.2,""angle_rad"":1.228,""angle_deg"":70.4},{""word"":""嘴唇"",""x"":153,""y"":486.8,""cx"":172,""cy"":504.2,""angle_rad"":2.428,""angle_deg"":139.1},{""word"":""剪刀"",""x"":574,""y"":373.8,""cx"":593,""cy"":391.2,""angle_rad"":0.168,""angle_deg"":9.6},{""word"":""长颈鹿"",""x"":35,""y"":261.8,""cx"":61,""cy"":279.2,""angle_rad"":-2.901,""angle_deg"":193.8},{""word"":""制度"",""x"":356,""y"":533.8,""cx"":375,""cy"":551.2,""angle_rad"":1.447,""angle_deg"":82.9},{""word"":""过失"",""x"":226,""y"":605.8,""cx"":245,""cy"":623.2,""angle_rad"":1.938,""angle_deg"":111},{""word"":""友情"",""x"":609,""y"":197.8,""cx"":628,""cy"":215.2,""angle_rad"":-0.451,""angle_deg"":334.1},{""word"":""方法"",""x"":597,""y"":290.8,""cx"":616,""cy"":308.2,""angle_rad"":-0.156,""angle_deg"":351.1},{""word"":""蚂蚁"",""x"":97,""y"":291.8,""cx"":116,""cy"":309.2,""angle_rad"":-2.969,""angle_deg"":189.9},{""word"":""沮丧"",""x"":334,""y"":442.8,""cx"":353,""cy"":460.2,""angle_rad"":1.544,""angle_deg"":88.4},{""word"":""沙发"",""x"":577,""y"":422.8,""cx"":596,""cy"":440.2,""angle_rad"":0.351,""angle_deg"":20.1},{""word"":""暴力"",""x"":244,""y"":581.8,""cx"":263,""cy"":599.2,""angle_rad"":1.907,""angle_deg"":109.2},{""word"":""筷子"",""x"":631,""y"":344.8,""cx"":650,""cy"":362.2,""angle_rad"":0.041,""angle_deg"":2.3},{""word"":""概念"",""x"":480,""y"":63.8,""cx"":499,""cy"":81.2,""angle_rad"":-1.065,""angle_deg"":299},{""word"":""麻雀"",""x"":51,""y"":291.8,""cx"":70,""cy"":309.2,""angle_rad"":-2.997,""angle_deg"":188.3},{""word"":""椅子"",""x"":544,""y"":451.8,""cx"":563,""cy"":469.2,""angle_rad"":0.51,""angle_deg"":29.2},{""word"":""买卖"",""x"":441,""y"":560.8,""cx"":460,""cy"":578.2,""angle_rad"":1.122,""angle_deg"":64.3},{""word"":""魔力"",""x"":371,""y"":455.8,""cx"":390,""cy"":473.2,""angle_rad"":1.257,""angle_deg"":72},{""word"":""结果"",""x"":487,""y"":236.8,""cx"":506,""cy"":254.2,""angle_rad"":-0.551,""angle_deg"":328.4},{""word"":""敌意"",""x"":527,""y"":207.8,""cx"":546,""cy"":225.2,""angle_rad"":-0.567,""angle_deg"":327.5},{""word"":""纠纷"",""x"":512,""y"":261.8,""cx"":531,""cy"":279.2,""angle_rad"":-0.373,""angle_deg"":338.6},{""word"":""关系"",""x"":521,""y"":150.8,""cx"":540,""cy"":168.2,""angle_rad"":-0.763,""angle_deg"":316.3},{""word"":""铅笔"",""x"":510,""y"":480.8,""cx"":529,""cy"":498.2,""angle_rad"":0.692,""angle_deg"":39.6},{""word"":""愤怒"",""x"":237,""y"":598.8,""cx"":256,""cy"":616.2,""angle_rad"":1.91,""angle_deg"":109.4},{""word"":""团队"",""x"":337,""y"":513.8,""cx"":356,""cy"":531.2,""angle_rad"":1.538,""angle_deg"":88.1},{""word"":""洗衣机"",""x"":496,""y"":356.8,""cx"":522,""cy"":374.2,""angle_rad"":0.14,""angle_deg"":8},{""word"":""大腿"",""x"":209,""y"":483.8,""cx"":228,""cy"":501.2,""angle_rad"":2.25,""angle_deg"":128.9},{""word"":""慈善"",""x"":54,""y"":380.8,""cx"":73,""cy"":398.2,""angle_rad"":2.969,""angle_deg"":170.1},{""word"":""手指"",""x"":120,""y"":467.8,""cx"":139,""cy"":485.2,""angle_rad"":2.572,""angle_deg"":147.3},{""word"":""性质"",""x"":282,""y"":290.8,""cx"":301,""cy"":308.2,""angle_rad"":-2.435,""angle_deg"":220.5},{""word"":""猫"",""x"":199,""y"":66.8,""cx"":211,""cy"":84.2,""angle_rad"":-2.053,""angle_deg"":242.4},{""word"":""眼睛"",""x"":156,""y"":412.8,""cx"":175,""cy"":430.2,""angle_rad"":2.712,""angle_deg"":155.4},{""word"":""床"",""x"":579,""y"":417.8,""cx"":591,""cy"":435.2,""angle_rad"":0.34,""angle_deg"":19.5},{""word"":""鼠标"",""x"":522,""y"":528.8,""cx"":541,""cy"":546.2,""angle_rad"":0.799,""angle_deg"":45.8},{""word"":""微波炉"",""x"":500,""y"":369.8,""cx"":526,""cy"":387.2,""angle_rad"":0.208,""angle_deg"":11.9},{""word"":""原因"",""x"":156,""y"":182.8,""cx"":175,""cy"":200.2,""angle_rad"":-2.434,""angle_deg"":220.6},{""word"":""锤子"",""x"":426,""y"":404.8,""cx"":445,""cy"":422.2,""angle_rad"":0.65,""angle_deg"":37.2},{""word"":""勺子"",""x"":624,""y"":340.8,""cx"":643,""cy"":358.2,""angle_rad"":0.028,""angle_deg"":1.6},{""word"":""缘分"",""x"":500,""y"":145.8,""cx"":519,""cy"":163.2,""angle_rad"":-0.835,""angle_deg"":312.1},{""word"":""胳膊"",""x"":240,""y"":415.8,""cx"":259,""cy"":433.2,""angle_rad"":2.401,""angle_deg"":137.6},{""word"":""老鼠"",""x"":83,""y"":146.8,""cx"":102,""cy"":164.2,""angle_rad"":-2.499,""angle_deg"":216.8},{""word"":""兴奋"",""x"":306,""y"":331.8,""cx"":325,""cy"":349.2,""angle_rad"":-3.11,""angle_deg"":181.8},{""word"":""耳朵"",""x"":81,""y"":455.8,""cx"":100,""cy"":473.2,""angle_rad"":2.684,""angle_deg"":153.8},{""word"":""社会"",""x"":532,""y"":251.8,""cx"":551,""cy"":269.2,""angle_rad"":-0.382,""angle_deg"":338.1},{""word"":""牙刷"",""x"":156,""y"":516.8,""cx"":175,""cy"":534.2,""angle_rad"":2.331,""angle_deg"":133.5},{""word"":""过程"",""x"":344,""y"":270.8,""cx"":363,""cy"":288.2,""angle_rad"":-1.363,""angle_deg"":281.9},{""word"":""光彩"",""x"":193,""y"":341.8,""cx"":212,""cy"":359.2,""angle_rad"":3.075,""angle_deg"":176.2},{""word"":""空调"",""x"":489,""y"":385.8,""cx"":508,""cy"":403.2,""angle_rad"":0.325,""angle_deg"":18.6},{""word"":""乌龟"",""x"":87,""y"":266.8,""cx"":106,""cy"":284.2,""angle_rad"":-2.878,""angle_deg"":195.1},{""word"":""地位"",""x"":62,""y"":358.8,""cx"":81,""cy"":376.2,""angle_rad"":3.044,""angle_deg"":174.4},{""word"":""创伤"",""x"":378,""y"":178.8,""cx"":397,""cy"":196.2,""angle_rad"":-1.274,""angle_deg"":287},{""word"":""死亡"",""x"":342,""y"":78.8,""cx"":361,""cy"":96.2,""angle_rad"":-1.527,""angle_deg"":272.5},{""word"":""快乐"",""x"":217,""y"":215.8,""cx"":236,""cy"":233.2,""angle_rad"":-2.344,""angle_deg"":225.7},{""word"":""身份"",""x"":79,""y"":377.8,""cx"":98,""cy"":395.2,""angle_rad"":2.964,""angle_deg"":169.8},{""word"":""婚姻"",""x"":497,""y"":127.8,""cx"":516,""cy"":145.2,""angle_rad"":-0.89,""angle_deg"":309},{""word"":""错误"",""x"":430,""y"":522.8,""cx"":449,""cy"":540.2,""angle_rad"":1.091,""angle_deg"":62.5},{""word"":""脚踝"",""x"":242,""y"":487.8,""cx"":261,""cy"":505.2,""angle_rad"":2.091,""angle_deg"":119.8},{""word"":""老虎"",""x"":165,""y"":89.8,""cx"":184,""cy"":107.2,""angle_rad"":-2.17,""angle_deg"":235.6},{""word"":""冷漠"",""x"":283,""y"":602.8,""cx"":302,""cy"":620.2,""angle_rad"":1.747,""angle_deg"":100.1},{""word"":""疾病"",""x"":294,""y"":33.8,""cx"":313,""cy"":51.2,""angle_rad"":-1.694,""angle_deg"":262.9},{""word"":""扫帚"",""x"":610,""y"":384.8,""cx"":629,""cy"":402.2,""angle_rad"":0.185,""angle_deg"":10.6},{""word"":""难过"",""x"":286,""y"":560.8,""cx"":305,""cy"":578.2,""angle_rad"":1.765,""angle_deg"":101.2},{""word"":""钥匙"",""x"":276,""y"":145.8,""cx"":295,""cy"":163.2,""angle_rad"":-1.857,""angle_deg"":253.6},{""word"":""天堂"",""x"":355,""y"":114.8,""cx"":374,""cy"":132.2,""angle_rad"":-1.461,""angle_deg"":276.3},{""word"":""义务"",""x"":159,""y"":167.8,""cx"":178,""cy"":185.2,""angle_rad"":-2.378,""angle_deg"":223.8},{""word"":""数据"",""x"":356,""y"":225.8,""cx"":375,""cy"":243.2,""angle_rad"":-1.341,""angle_deg"":283.2},{""word"":""爱心"",""x"":229,""y"":226.8,""cx"":248,""cy"":244.2,""angle_rad"":-2.338,""angle_deg"":226},{""word"":""内容"",""x"":375,""y"":256.8,""cx"":394,""cy"":274.2,""angle_rad"":-1.045,""angle_deg"":300.1},{""word"":""现象"",""x"":431,""y"":73.8,""cx"":450,""cy"":91.2,""angle_rad"":-1.202,""angle_deg"":291.1},{""word"":""柜子"",""x"":616,""y"":449.8,""cx"":635,""cy"":467.2,""angle_rad"":0.39,""angle_deg"":22.4},{""word"":""奇迹"",""x"":283,""y"":38.8,""cx"":302,""cy"":56.2,""angle_rad"":-1.733,""angle_deg"":260.7},{""word"":""恐惧"",""x"":410,""y"":160.8,""cx"":429,""cy"":178.2,""angle_rad"":-1.14,""angle_deg"":294.7},{""word"":""膝盖"",""x"":220,""y"":506.8,""cx"":239,""cy"":524.2,""angle_rad"":2.138,""angle_deg"":122.5},{""word"":""舒心"",""x"":198,""y"":319.8,""cx"":217,""cy"":337.2,""angle_rad"":-3.046,""angle_deg"":185.5},{""word"":""债务"",""x"":453,""y"":531.8,""cx"":472,""cy"":549.2,""angle_rad"":1.021,""angle_deg"":58.5},{""word"":""大象"",""x"":91,""y"":230.8,""cx"":110,""cy"":248.2,""angle_rad"":-2.74,""angle_deg"":203},{""word"":""作用"",""x"":284,""y"":159.8,""cx"":303,""cy"":177.2,""angle_rad"":-1.836,""angle_deg"":254.8},{""word"":""纪律"",""x"":430,""y"":313.8,""cx"":449,""cy"":331.2,""angle_rad"":-0.188,""angle_deg"":349.3},{""word"":""电视"",""x"":498,""y"":390.8,""cx"":517,""cy"":408.2,""angle_rad"":0.335,""angle_deg"":19.2},{""word"":""肩膀"",""x"":218,""y"":422.8,""cx"":237,""cy"":440.2,""angle_rad"":2.468,""angle_deg"":141.4},{""word"":""鼻子"",""x"":135,""y"":421.8,""cx"":154,""cy"":439.2,""angle_rad"":2.714,""angle_deg"":155.5},{""word"":""斧头"",""x"":404,""y"":386.8,""cx"":423,""cy"":404.2,""angle_rad"":0.639,""angle_deg"":36.6},{""word"":""风景"",""x"":181,""y"":318.8,""cx"":200,""cy"":336.2,""angle_rad"":-3.05,""angle_deg"":185.3},{""word"":""熊猫"",""x"":221,""y"":88.8,""cx"":240,""cy"":106.2,""angle_rad"":-1.995,""angle_deg"":245.7},{""word"":""骗局"",""x"":468,""y"":554.8,""cx"":487,""cy"":572.2,""angle_rad"":1.018,""angle_deg"":58.3},{""word"":""桌子"",""x"":561,""y"":473.8,""cx"":580,""cy"":491.2,""angle_rad"":0.551,""angle_deg"":31.5}],""n_words"":90,""words"":[""骄傲"",""冰箱"",""兔子"",""反感"",""协议"",""嘴唇"",""剪刀"",""长颈鹿"",""制度"",""过失"",""友情"",""方法"",""蚂蚁"",""沮丧"",""沙发"",""暴力"",""筷子"",""概念"",""麻雀"",""椅子"",""买卖"",""魔力"",""结果"",""敌意"",""纠纷"",""关系"",""铅笔"",""愤怒"",""团队"",""洗衣机"",""大腿"",""慈善"",""手指"",""性质"",""猫"",""眼睛"",""床"",""鼠标"",""微波炉"",""原因"",""锤子"",""勺子"",""缘分"",""胳膊"",""老鼠"",""兴奋"",""耳朵"",""社会"",""牙刷"",""过程"",""光彩"",""空调"",""乌龟"",""地位"",""创伤"",""死亡"",""快乐"",""身份"",""婚姻"",""错误"",""脚踝"",""老虎"",""冷漠"",""疾病"",""扫帚"",""难过"",""钥匙"",""天堂"",""义务"",""数据"",""爱心"",""内容"",""现象"",""柜子"",""奇迹"",""恐惧"",""膝盖"",""舒心"",""债务"",""大象"",""作用"",""纪律"",""电视"",""肩膀"",""鼻子"",""斧头"",""风景"",""熊猫"",""骗局"",""桌子""],""distance_matrix"":[[0,0.29891418798685165,0.5286823276414347,0.11909458237669551,0.23783709075187193,0.2742140563874377,0.42490337536229605,0.509882912862649,0.18416317970695426,0.3233943813606497,0.6005289724033316,0.5036014082773991,0.4065856222613088,0.03500331403279942,0.4223011772200273,0.2749939603541342,0.527006835073495,0.6409706640896801,0.47315585747978883,0.3708536661110436,0.2977944320545197,0.09701174105437914,0.40747976133052066,0.4877182943901752,0.40942402008020046,0.5523407578874165,0.325609538493687,0.30532219243640846,0.14321063157439595,0.3186641243627746,0.18870560775301767,0.4229124654150146,0.31694522659109414,0.21245064880210165,0.6092944835260629,0.24956526501956092,0.4141307548272869,0.37354542686534,0.3185858119881683,0.46246313953506385,0.17551179359872404,0.517447327406881,0.5388853881674687,0.11098265115684226,0.5822137669992212,0.13906791331903454,0.3766359394680931,0.44550939821316493,0.29169428360666183,0.2439815925494318,0.228597677790165,0.2834784161363748,0.44282150287239397,0.4173509610767084,0.4045692396544482,0.5578342236563703,0.36553884313986795,0.38314450926854354,0.5611568255011437,0.2410465673174235,0.1483892172897126,0.5903032984394931,0.2897177865482154,0.6310580614305707,0.4807619446139434,0.22068206050767522,0.4496830486773582,0.5010375215029534,0.4807342978847882,0.3207019614109544,0.3408495675681036,0.28015249698608846,0.5957066926295033,0.48864158370651356,0.6240212804315833,0.4487585118052253,0.1963460467714553,0.24430622003529906,0.27980240496231085,0.47389379127962233,0.4251153697046483,0.2509841022396099,0.29650278722341866,0.14673914524193962,0.2836997343109329,0.14827860723199504,0.26692088587243196,0.5604219880312956,0.32301630590367825,0.40449727895953014],[0.29891418798685165,0,0.7643100791551752,0.2699294846881781,0.30281708758770587,0.5837156324869551,0.1170484253323439,0.7603208653723688,0.33790224100533295,0.5746560237332982,0.33483950111302846,0.20509543026836774,0.6608049158560247,0.2782381948989244,0.14369332503314652,0.526450551417099,0.21652591768842305,0.502183316060539,0.735277397951946,0.138052968706923,0.3083824081211859,0.23410989242200483,0.21652591768842305,0.2686017140764327,0.17665020273418772,0.3602432409827713,0.16475880858292732,0.5533632559962958,0.3368140067995358,0.020200413190469113,0.49490703472866854,0.7177312681802391,0.6274556383899792,0.36767657913654717,0.7024150867506443,0.5528498268881056,0.13241857582876754,0.24603946470322055,0.008270125068717788,0.6326299007560596,0.11399797189740601,0.20686556789769842,0.3662563676378683,0.4161338932211389,0.7667623522594598,0.3097745646385351,0.686033736227144,0.19980555499897518,0.596320525939853,0.2922323190071367,0.4912605463039544,0.009846535980932075,0.6863439112024591,0.7049499893378853,0.36583467170363676,0.538902696999881,0.5182135017535506,0.676430078879558,0.39590336466878967,0.2557253730185304,0.4470552256825035,0.7090681350885403,0.5031785061269121,0.6423209605739456,0.17716277105334227,0.4512237612900989,0.5123203952613559,0.4763771264173597,0.6409310299020855,0.32569429117098814,0.4920584443051755,0.267213931525559,0.49645261901536925,0.221833457134098,0.6447726997086266,0.36889479523457686,0.49315720288143944,0.48835851398880675,0.2569343605158136,0.6975964613648123,0.4865583611503232,0.13662772053081562,0.014938840960550655,0.45383975068845694,0.5890355129062965,0.14142477146086657,0.5162547231018794,0.643020017883779,0.2889172081908719,0.18375259571510097],[0.5286823276414347,0.7643100791551752,0,0.4865583611503232,0.7708300764461664,0.4433753110821259,0.8873413929705002,0.03881472607830412,0.7001007093124935,0.6717888041549565,0.9157211634145827,0.8994380044088609,0.11615691060258267,0.5747860341586708,0.9163741752387624,0.6502476838654134,0.9682277608265021,0.7531686574893875,0.08746022967510118,0.8836632072244452,0.8340484830347603,0.6369280951611094,0.7127608399327106,0.7797082277835583,0.7555642752852573,0.7801777182588623,0.8543371380447835,0.6694942814492351,0.654612033649497,0.7669319736445873,0.4817699901232974,0.23439222059329182,0.39546890718249517,0.3865332822638487,0.3496980071180162,0.33612185632487956,0.9058257052610437,0.911318580086095,0.7792057536702034,0.18402409520712787,0.6742800991313007,0.9556418437040363,0.7475447051032635,0.4271397201462118,0.14001325613119767,0.4449104739480527,0.3619378381051643,0.7876486569101425,0.4912361837531301,0.4809747724604907,0.28864987448116924,0.7591066519721626,0.07479978266741674,0.19916081774741962,0.5398340987788414,0.5352135042168449,0.268441375439286,0.23461342798451887,0.7488292946392577,0.7807190923783183,0.5183419459892042,0.291932033473656,0.7129863125938775,0.509399795973616,0.9494237717760238,0.6583610459659717,0.3904219802753702,0.5304455642651881,0.19975404837302868,0.4966508430047251,0.28710920282296837,0.5294803944520133,0.6719740246315713,0.992232590962838,0.4901115146780093,0.5970388644469946,0.5235485562194713,0.2752929940913325,0.81998327338896,0.05930451100072491,0.39546890718249517,0.6330185663597849,0.7758523429117752,0.4102508436425035,0.3331499128970365,0.6290214418190112,0.250574312261428,0.3586916257505554,0.8626041825835673,0.9242780543595261],[0.11909458237669551,0.2699294846881781,0.4865583611503232,0,0.33948368857520433,0.3601993127556413,0.397060770495766,0.4797241277521855,0.30359964218357804,0.4507205749915228,0.5116158389561053,0.4410567923514047,0.3794027851270936,0.1503420803123354,0.4188872200134906,0.40323594646947836,0.4883040591309465,0.5154908667946145,0.45369350356040844,0.38608174494697667,0.39057430944399346,0.18475319011216038,0.3054939329142824,0.3869877230579441,0.3214057192655173,0.43987648714032757,0.3632291789205888,0.4335368343389952,0.2675895562289102,0.2777729276337397,0.2902638529938713,0.4443376325971205,0.3870662580357406,0.1053827152955571,0.4990022032234377,0.29351973395581854,0.40858261233994614,0.42952829407459014,0.28656192496545296,0.3782104196640628,0.1779397955420844,0.4767981493025533,0.42235136662340905,0.17490715274236243,0.508115400246562,0.030497946474070746,0.43516369593303156,0.3582760266159627,0.38970356289850017,0.11325913871360983,0.21114695071793443,0.2624727176936665,0.40630886502759905,0.42785889422808016,0.2743997140503002,0.42785889422808016,0.26914521106114475,0.4027927520565562,0.44217703887060844,0.3268504511526653,0.26367680006822314,0.4877182943901752,0.4204778758807757,0.5045622200487739,0.45831029013602365,0.3514230746940163,0.32772200613440006,0.37045485751123375,0.3921450127730648,0.19005311469798114,0.24249153583022934,0.15295120980178364,0.46671085377065885,0.49415131176398597,0.4986848686324475,0.3207306318049015,0.30960087498432226,0.2067721043510861,0.35948475036778366,0.4222886289622013,0.3021106859183686,0.16424105354719856,0.27893235675670097,0.210841247528034,0.33120592424053574,0.13161322087670657,0.23465764562468466,0.44616403911932456,0.40479158500760776,0.4277907471968615],[0.23783709075187193,0.30281708758770587,0.7708300764461664,0.33948368857520433,0,0.41590471033107124,0.38153785407704777,0.7471088486943459,0.07216173519069095,0.3030118271313741,0.6488435175003525,0.5100916897273361,0.6452225742467468,0.19165967439533024,0.3330393488435465,0.2632809765803245,0.48288334886304696,0.788093059800575,0.7057360398798713,0.26109368005539507,0.05327467082294664,0.14306992893084453,0.5106445448262902,0.5760590776431498,0.48389532049675665,0.6624204888286068,0.18812045554425563,0.2821053024198106,0.1118343620277498,0.33447392688616884,0.32766183241964947,0.6277175816433963,0.4762097316883961,0.45176459128587465,0.8494928001757749,0.45328962280022106,0.33121783543628674,0.18112957287581116,0.3188824766103192,0.7115458376551036,0.21842115290176142,0.4787340854184126,0.6615232022554911,0.3332130764419515,0.8315577934231332,0.37361963510433943,0.5434876828549202,0.5115820172061681,0.4030751380650304,0.44866388584046935,0.47158083746794116,0.28136755684075304,0.6843751794186634,0.6320549217483465,0.5907328337612928,0.7612144210145496,0.6115485168489826,0.5927047642960186,0.689381800811303,0.039882127361099716,0.27375653841575903,0.8350137659403228,0.21415108429064836,0.8483110916703318,0.41410197893163264,0.18855608043189287,0.677637853364937,0.699559221443232,0.7292752130160868,0.5178716884293235,0.5859795773643098,0.4630169756610402,0.763314700815074,0.3673067584755325,0.8443761849921086,0.6186943064404937,0.30094141563512294,0.4915176346244875,0.06798132775560534,0.7199098658918873,0.6515975666281204,0.36826826007757607,0.2815068962131255,0.35635378682155394,0.47805070658629323,0.24576462200895435,0.5122164613180726,0.7972732133135397,0.09253529098219668,0.2682906706451861],[0.2742140563874377,0.5837156324869551,0.4433753110821259,0.3601993127556413,0.41590471033107124,0,0.7076008866115452,0.4023194883870381,0.3321575159559285,0.21869316066848843,0.8791526258989479,0.7891732400386995,0.323101715103241,0.2956933064735324,0.6958880483118451,0.20540295382091733,0.8111343307769343,0.8705546333873336,0.35145681762852876,0.6360900735950947,0.47898941345023405,0.35166670325370036,0.6767426033953781,0.7582583923315823,0.6874372027881345,0.8105914586245159,0.5774911407464157,0.21934231534395085,0.2951968332094043,0.6044082338207905,0.08086876340897138,0.22766094468642878,0.05116510027656977,0.3755088976439053,0.6843438848099686,0.11053786121490328,0.6890243999200798,0.601140196896963,0.6035347666249886,0.48997855599267875,0.45868381145755416,0.8019984662490744,0.791105422706834,0.17362584211673235,0.5611235522827825,0.3477071624541747,0.11768145962624353,0.7241718633216577,0.038081285193753714,0.46410554588713493,0.23652961358211388,0.5672630106949397,0.3673319033475168,0.24747760662047927,0.6177195453201849,0.7302869001688607,0.4478024865805073,0.20572256733168218,0.8087632504463778,0.4492461186023535,0.13519791068265252,0.6437100206975216,0.27582384162700474,0.7711866487352538,0.7609695450703206,0.23947406164304844,0.5864918807679684,0.6868176860906622,0.514798311175774,0.5339299922247247,0.43530382292798003,0.5157980906394433,0.8098179088313576,0.7547511738025416,0.7580585619362111,0.6733109034929132,0.10370755063809314,0.2737231490397694,0.4888918580961319,0.4229625842292465,0.5695933825194925,0.5272216090569173,0.579235446995746,0.13885100132082642,0.09962344162049085,0.4341601993184187,0.2693681285413398,0.6545772976810579,0.5200780268839371,0.6619032803166579],[0.42490337536229605,0.1170484253323439,0.8873413929705002,0.397060770495766,0.38153785407704777,0.7076008866115452,0,0.8854131364269336,0.43453563089515806,0.6784648763245537,0.28443166921796437,0.13044932377366736,0.786961985901831,0.4003912652373528,0.06933715448403446,0.6319957035749237,0.0938594642398358,0.522853706130267,0.8618626667342697,0.12622929365599575,0.3669797231882065,0.3495925076600713,0.2561221970969078,0.2730115034738763,0.19956723157298215,0.366548035549335,0.19406253396677534,0.6569555936617979,0.44253385519702415,0.1087987894763461,0.6173647122247241,0.8464474337551299,0.7533537496591315,0.4892398579239976,0.7969904362533461,0.6810579442257838,0.061010363331252884,0.25810260816949016,0.09908390413561931,0.7466565848523314,0.23784254697418675,0.08718517919763147,0.3838679563123954,0.5437965779034807,0.8809129234868028,0.43594905864763206,0.8129936011221927,0.2012362875080459,0.7173074664979433,0.4041667541346968,0.6192232016938777,0.12997916499528378,0.8110846927190032,0.8335316040098675,0.4445435802564841,0.6076018719925379,0.6325221312838285,0.8051445596990994,0.4136701068796437,0.330247702600881,0.5675521757719877,0.8099571021263987,0.5993537074241824,0.7151135754109271,0.05044599049597881,0.5549415983540781,0.6074677583703183,0.5480010572613981,0.752835734801628,0.42311290600763085,0.6071290471183707,0.3692452047826109,0.5367149993260972,0.13161322087670657,0.7205367096104126,0.43190707513798915,0.6123235056582086,0.6151250790265373,0.3167131493824807,0.8195133367590948,0.5830361419118072,0.24574346810831843,0.11683672091820274,0.5812961284675945,0.7170310225330156,0.2696634640848018,0.6431302177071175,0.736952295630138,0.33444246160435215,0.15472790260892683],[0.509882912862649,0.7603208653723688,0.03881472607830412,0.4797241277521855,0.7471088486943459,0.4023194883870381,0.8854131364269336,0,0.6738175188780865,0.6320549217483467,0.929864264496692,0.9053715527077993,0.09170894614644193,0.5552106322480679,0.9102279395254558,0.6127575152913608,0.969826929543633,0.7814798281787055,0.04001400247734034,0.8740136840479925,0.8110582178635477,0.6185582330621378,0.7237721355063932,0.7935623160102045,0.7638660911090343,0.799661093555867,0.8409342117711235,0.6307890041824823,0.6285282866745258,0.7649992489459805,0.44672271870955627,0.185686640051706,0.35179782022263834,0.38723010731421015,0.39428013553048863,0.30052742992642073,0.8999667956719002,0.8946544853249352,0.7760390180362973,0.21719311728414487,0.6644692591975745,0.957480943951117,0.7679279722443757,0.40223398032876134,0.18978974053582853,0.43900433358007945,0.31485059349849864,0.7970358892351699,0.44923430393276415,0.48687522246971354,0.27030149189685515,0.753768264844973,0.06304241814703063,0.15175601736384786,0.559421663790017,0.5681840749023077,0.2869040911833345,0.18924162946646822,0.7709970768646538,0.7599328072660556,0.4863041801636193,0.33724736674799466,0.6773474692742611,0.5490848824658284,0.9472966949489732,0.625133920067084,0.41928859335981716,0.558928001690451,0.23598050365075476,0.5098489787278522,0.3022538280851023,0.5378681567148789,0.7012416510235747,0.9849812093103644,0.5301240320377757,0.6180136454958884,0.4880316958282041,0.26295894991700397,0.7997600865384579,0.08400795367871859,0.4216701776374347,0.6342843295734155,0.7702940426631083,0.3819254329827456,0.29370257043693193,0.6202667386630852,0.23622775364022683,0.3990974403805108,0.8414769247370382,0.9134106537365292],[0.18416317970695426,0.33790224100533295,0.7001007093124935,0.30359964218357804,0.07216173519069095,0.3321575159559285,0.43453563089515806,0.6738175188780865,0,0.2335442608943585,0.6823537873522296,0.5530571830907667,0.5732240017319561,0.14281457875213668,0.3964107591506924,0.18939741784240952,0.5389373130323435,0.7904030407747069,0.6307784090719711,0.3267700105407136,0.13549423518473885,0.11939615407294517,0.5239579170526136,0.595767207404094,0.5057291525377736,0.6764617333907466,0.25707117105034916,0.21207372348315215,0.03385149312169943,0.3679850854727405,0.24454012221943885,0.5469565596802402,0.39269079247523614,0.4074797613305207,0.8050512200045192,0.374043408295933,0.39289274625469706,0.26236841283026435,0.3561798854376475,0.6549307027265425,0.23051086964079942,0.5332883516660495,0.6712308477929589,0.2613680503835908,0.7698081622134288,0.33170583871057996,0.4600017950515673,0.5368415930188315,0.3195366696391387,0.42275267310540254,0.40391786906013755,0.31666339720997255,0.6137291263392867,0.5528908219443436,0.5752315655435364,0.7394703264472271,0.5609928173515775,0.5129020447923448,0.6975120022948534,0.11177923452718058,0.19117702911180642,0.7858771038457089,0.15408030263269687,0.8196869331416062,0.47424132568967986,0.11213162634019733,0.6420273834881909,0.6797143857295312,0.6741848291446061,0.4965544193698115,0.5365387123705314,0.4464761516073187,0.757387955201796,0.4391855422985538,0.8139521714129777,0.6102255358418228,0.21712172467911306,0.42726379974475864,0.14842323577864808,0.6525431068143909,0.6167909304634334,0.3713338209642517,0.32086575893845654,0.2805627368706194,0.3971540206043022,0.24349654458340003,0.44576243871447674,0.7556600863635854,0.17636081651007998,0.34078777256113635],[0.3233943813606497,0.5746560237332982,0.6717888041549565,0.4507205749915228,0.3030118271313741,0.21869316066848843,0.6784648763245537,0.6320549217483467,0.2335442608943585,0,0.9117137850272976,0.7914038337653065,0.5484751850307922,0.31097511620592794,0.6414981953591959,0.037834390088922934,0.7833622159471898,0.9760075222977938,0.5814889503171925,0.5713473076315349,0.3507851180870537,0.33258091947050733,0.7341246365473877,0.8117247939831123,0.7265103602425739,0.8831065237512099,0.5003360514384968,0.009846535980932075,0.22622317930469174,0.6029259235786731,0.19158601109433268,0.455652325826582,0.27546373068720204,0.5162547231018795,0.8794887707135155,0.3270956770471082,0.6380919669484633,0.4930088617833515,0.5938367281691368,0.6958053095608872,0.4562113143928894,0.7773169002310049,0.8718159981163908,0.3026958554322787,0.7816205615622537,0.4593288124706183,0.33258091947050733,0.7604390079613679,0.17516964690323994,0.5743959163593139,0.42734133168521626,0.5541144800913347,0.5929029546749461,0.47755841667371063,0.7362227198600692,0.878736853235517,0.6320316581156449,0.43596426524472753,0.8950089069959152,0.3517416330285943,0.1848224866256786,0.8456982957465169,0.08251651413552209,0.938819562402472,0.7194035347761013,0.11208763223870703,0.7518360957215209,0.8260132071404386,0.7194705693218504,0.6510369903304697,0.6137291263392867,0.614494893883175,0.9290889384771076,0.6814332024862001,0.9286387827271666,0.7829083138643812,0.1519890994955304,0.46250907800149077,0.3822988086733691,0.6459847916610081,0.7304611895969048,0.5760915053578176,0.560431506520546,0.2905838128643662,0.3270474499152179,0.45400641638952727,0.4676888086223215,0.8414593717805262,0.39642076716694136,0.5824704518114784],[0.6005289724033316,0.33483950111302846,0.9157211634145827,0.5116158389561053,0.6488435175003525,0.8791526258989479,0.28443166921796437,0.929864264496692,0.6823537873522296,0.9117137850272976,0,0.1430611307673533,0.8472894330465275,0.5960652107535286,0.3633344722663709,0.8625294363910224,0.2335942220311076,0.2952500651870027,0.9220455849176634,0.42095644960909445,0.6483466094765872,0.5675239709002187,0.1996767648979046,0.12464056476776986,0.18008877609851937,0.15295120980178364,0.4830512372877466,0.8908854390404726,0.6763153190674122,0.3036514556078668,0.799718141833967,0.952621119154388,0.9100433327982598,0.5493033376744778,0.7095666216174875,0.8157310724199389,0.3564462540865358,0.5530571830907667,0.31829713233567725,0.7362245401362201,0.44423611692585013,0.22558711376664042,0.18760874576461525,0.6955281604650028,0.8603402757477006,0.535014321410125,0.9580187970487689,0.1435179738526909,0.9025525582587902,0.4418889824735363,0.714723856179497,0.35635378682155394,0.8571621493301147,0.9292061462625122,0.37078604037079893,0.47067851695369967,0.6358420298359707,0.9119304860698053,0.2062667085688737,0.6005645512746621,0.7601515549195789,0.7423266881057684,0.846212604951799,0.5743308714761415,0.29690011351508633,0.7901008613244128,0.5444652619260825,0.42925976233412916,0.7325128928509308,0.40834930910342593,0.6171828909062346,0.3865332822638487,0.3462875877709885,0.4043107774318448,0.5868263488157963,0.32232409404114243,0.8080743377027565,0.6957591255851064,0.5966070679085885,0.8448022800296711,0.5282588991672944,0.3402930219211334,0.3557095699603707,0.7327067789762468,0.8534044334991046,0.4484213179741959,0.7222433935348097,0.6533440188741971,0.6216891221995476,0.45058806650726124],[0.5036014082773991,0.20509543026836774,0.8994380044088609,0.4410567923514047,0.5100916897273361,0.7891732400386995,0.13044932377366736,0.9053715527077993,0.5530571830907667,0.7914038337653065,0.1430611307673533,0,0.8133699026126213,0.4895658883302347,0.20862766184691603,0.7432108853848418,0.09362699666578932,0.4097245772063581,0.8892730777935024,0.2680182238833146,0.5028690389110128,0.4500606007190812,0.19053170997759847,0.16749236787799746,0.13652670491946367,0.25118616807812716,0.3331499128970365,0.770097288759153,0.5535367040241225,0.17785361680864867,0.7033924308047095,0.8965451345952687,0.827857363368019,0.5081049237042222,0.7520161629757233,0.7433461303273226,0.20191300606477405,0.4000872016122127,0.18593481532127556,0.7375176370300595,0.32744913311368823,0.0820964021774785,0.2761929607369342,0.612474025590385,0.8691245516479447,0.4732457041073199,0.8822403902565492,0.11341160819244413,0.806004116903167,0.40710283001986,0.6602520212062468,0.22567316818246635,0.8308002631036449,0.8782229835154243,0.3942130588765485,0.5355220942800346,0.6274556383899792,0.8550411126552513,0.3038758821323305,0.4600133400170909,0.6582574158223689,0.7745443759856642,0.7187384425197765,0.6439280933213578,0.14491528506475135,0.6679155584034362,0.5695371695197289,0.4820871671473371,0.7390207146395259,0.40020951505499097,0.6046733457911038,0.3589194555777312,0.43915232615286137,0.25256023950013146,0.6526783668673153,0.3641322885557247,0.7052785645540861,0.6484476708631658,0.451579486881722,0.82911801694736,0.5482150723256988,0.26649542130428633,0.2205238099889697,0.6505540629168073,0.7807190923783182,0.34401749704682155,0.6763153190674122,0.6926250410814347,0.47317551285225135,0.29608283073548425],[0.4065856222613088,0.6608049158560247,0.11615691060258267,0.3794027851270936,0.6452225742467468,0.323101715103241,0.786961985901831,0.09170894614644193,0.5732240017319561,0.5484751850307922,0.8472894330465275,0.8133699026126213,0,0.45202889796834606,0.8093338628239355,0.5248188418831607,0.873800003267952,0.723814709451199,0.06423554285329061,0.7717411872363643,0.7089000069810114,0.5152506427887902,0.6382281399067747,0.7112747229137792,0.6748990318089096,0.7256338314721715,0.7377810748731506,0.5450915766345229,0.5277922392622418,0.666792816253704,0.3551087646916194,0.15143081216571858,0.2812142069649635,0.2936000171153425,0.3913350916151775,0.21046159127629657,0.7992230304681831,0.7912817699186584,0.6769956838229302,0.192847992138098,0.5623344034612616,0.8616709541825762,0.6956051572187418,0.3006495038004243,0.22870530964706262,0.3394565494300652,0.26022885558714337,0.7091417968457449,0.37215047912894117,0.3973704121137372,0.16693680762686056,0.6534975362761617,0.03276177826025061,0.11306283266644762,0.48808890443452757,0.52401891299364,0.22271217042357008,0.1333133844282616,0.7016826312799035,0.6570696042724639,0.3906284570261651,0.3400260316866847,0.5862801819117721,0.5239655419251008,0.8486165614318858,0.5308070602225615,0.369484585085476,0.50460441250633,0.21709197118447873,0.42935855163898096,0.2311172154810319,0.4506734652147715,0.6464607292639811,0.8835248291883719,0.5064784986461749,0.5482150723256988,0.39705077815084844,0.16127520863704484,0.696780242451517,0.0894723580554744,0.36602575469048837,0.5390040663785014,0.669877904173026,0.28259147886529323,0.21181802579185677,0.5186038757572125,0.13392245320299756,0.3808447970027847,0.7387250569352256,0.8107570063984394],[0.03500331403279942,0.2782381948989244,0.5747860341586708,0.1503420803123354,0.19165967439533024,0.2956933064735324,0.4003912652373528,0.5552106322480679,0.14281457875213668,0.31097511620592794,0.5960652107535286,0.4895658883302347,0.45202889796834606,0,0.39065552808441084,0.26157240175420515,0.5043934157225742,0.6585073200647481,0.5176171126442942,0.335165440877559,0.2511706300672908,0.05304367029668725,0.4117453460650939,0.4901115146780093,0.40721984499970515,0.5604886141306734,0.2854368537818471,0.2914473648780835,0.10559187944129016,0.30122435341840564,0.2054029538209173,0.46154343368701145,0.343849049198553,0.253414133325628,0.6515298298346361,0.28618737342317657,0.38321001853531417,0.3294624266503628,0.298168133680108,0.5082594312966195,0.15257864643778357,0.4955891749261553,0.5497569672586662,0.14971062467447271,0.6287153902284991,0.17722764517514167,0.4063512044734058,0.44228201396317846,0.3064154493185,0.27262388831565654,0.27452341891463106,0.2608390170918108,0.4887830585231594,0.45806690727834987,0.42996007133311476,0.5891034978108903,0.4097245772063581,0.4225552014206355,0.5735707049531407,0.19453182347719836,0.15732570898691897,0.6341199206524653,0.265431358300522,0.6664315400596545,0.4536993543279603,0.198533533160238,0.4876610433226867,0.5306639968852707,0.5261899117856972,0.34823333117095084,0.38462787195562276,0.30261356412223706,0.6178947244707786,0.45379588137483023,0.6602520212062468,0.4702549726411138,0.2040566682598049,0.2909079336876358,0.23353315703707306,0.5204465661539808,0.4625349164331591,0.2536656610267754,0.2722213580356991,0.18256470390623022,0.3185198503190963,0.13625085717221225,0.3132958945198051,0.6014955380456533,0.27650492300180163,0.3663752224693495],[0.4223011772200273,0.14369332503314652,0.9163741752387624,0.4188872200134906,0.3330393488435465,0.6958880483118451,0.06933715448403446,0.9102279395254558,0.3964107591506924,0.6414981953591959,0.3633344722663709,0.20862766184691603,0.8093338628239355,0.39065552808441084,0,0.5972289367813043,0.1448718078859571,0.6019505181675284,0.8827823927342704,0.060822806541997565,0.3080376799966171,0.3325809194705073,0.32928678797748523,0.35256484319548426,0.27482769563318216,0.44656528755737274,0.13455691758204308,0.6200663581170818,0.41186107838592034,0.151947502038935,0.6038444917428394,0.8540981594626605,0.7460621297428452,0.5216119269295891,0.8535759503947132,0.6832085036861254,0,0.185382890252912,0.1332100579249036,0.787963680615642,0.23925713926788197,0.14428804430704242,0.4627329643222906,0.5445264565460903,0.9220630809440529,0.46003931515640367,0.8085773840129611,0.2801011764432064,0.7001179230162609,0.4473756293049629,0.6359029985485636,0.14585146314084826,0.836854404591526,0.8446560324976529,0.5078743863242323,0.6757630170676078,0.6735573044259443,0.813416103243979,0.49268505703432736,0.2816972196578363,0.5514155373081192,0.8624546838069321,0.5571549293147863,0.782100926513744,0.07137856965446789,0.5197604688262735,0.663310531904293,0.6148122387423345,0.7962763207212294,0.47684831325589944,0.6473702608879489,0.41975586438731893,0.6125678095101237,0.06660201827084532,0.7863463769178898,0.5010056573219746,0.5934948867824763,0.6363926424431633,0.2607540765346742,0.8505797415669388,0.6380039630879752,0.29029992175810676,0.1289760690720314,0.5807080938062334,0.7176659403663412,0.27990981120407105,0.6639193634212518,0.7938175649487527,0.27080316546176414,0.07653008457320344],[0.2749939603541342,0.526450551417099,0.6502476838654134,0.40323594646947836,0.2632809765803245,0.20540295382091733,0.6319957035749237,0.6127575152913608,0.18939741784240952,0.037834390088922934,0.8625294363910224,0.7432108853848418,0.5248188418831607,0.26157240175420515,0.5972289367813043,0,0.7371413962038462,0.9275986924006993,0.5631378521347314,0.5278326149834723,0.3152381129581384,0.28352914954033415,0.6846430819247861,0.7622230555838463,0.677074752385273,0.8337264771388435,0.4578262979115409,0.018668434150826353,0.17843456511217506,0.554444029551146,0.16004282015728585,0.44472258963540434,0.2662701998063937,0.4725798820571133,0.8424401879093738,0.3027348280088059,0.5934386443769305,0.4553142793164431,0.5457367266023835,0.6625335753004954,0.4072458438897543,0.7308298144820806,0.822609700358496,0.26232369859060545,0.75369889811838,0.41334671562996705,0.32828311384919306,0.7110637855802989,0.16885493715372968,0.5273807392632955,0.393192125485284,0.5060474284634091,0.5690872696448367,0.4632922184072123,0.6891079392757194,0.8339245252816854,0.5938996779034095,0.4212710122404185,0.8459332653782987,0.3103162124122614,0.14347410508992134,0.8105666235836109,0.061421294121748675,0.8963277603294986,0.6741848291446061,0.06581536725417947,0.7096987382985842,0.7803839996507613,0.6857117106714796,0.6041430077174469,0.5746304825835162,0.5665312246322771,0.8815578523694719,0.6396572821834189,0.8866293903864157,0.735064125400941,0.11826950916976262,0.42726379974475864,0.3429288341468088,0.6201396228908945,0.6877837367522213,0.5266200259552966,0.5127255408115283,0.2541782444432237,0.30778634756652545,0.404546344419248,0.4345783429230933,0.8027025490858556,0.3606237351630101,0.5409290150343615],[0.527006835073495,0.21652591768842305,0.9682277608265021,0.4883040591309465,0.48288334886304696,0.8111343307769343,0.0938594642398358,0.969826929543633,0.5389373130323435,0.7833622159471898,0.2335942220311076,0.09362699666578932,0.873800003267952,0.5043934157225742,0.1448718078859571,0.7371413962038462,0,0.5147077982087844,0.9493614445465804,0.21588667658792352,0.4630141077091993,0.45481258702473576,0.28534519725486995,0.27214941755322114,0.22773488091300934,0.35632419238958407,0.28870426671401545,0.7618482717084895,0.5478915861089968,0.20046758578473237,0.721463900372192,0.9422751141503383,0.8556016833150245,0.5710600258031927,0.8457427543994274,0.7801072264654284,0.14321063157439587,0.34122011036760475,0.1970581900099223,0.8164464946777483,0.3407877725611363,0.0016355348081420918,0.3814582146887373,0.6440609782035093,0.9497849068395665,0.5250344914440289,0.9141697010209385,0.21246279712962476,0.8219191657637185,0.47739142627584835,0.7110807381764878,0.23221377045272415,0.8951515376326958,0.9275073760254423,0.48763923166550677,0.6364493583768446,0.7038568199252914,0.9007981999185841,0.4091653045706851,0.43135429541363807,0.6722069726866281,0.8648622422071454,0.7031544096748868,0.7450121637326353,0.06287823977611437,0.6599764166640706,0.6598649268234564,0.5811560637674447,0.820127312272484,0.4827649670282106,0.6796474346479645,0.435011334123004,0.544093053610612,0.1633487988197306,0.7529763989680627,0.46284486786961304,0.717292526261168,0.7040033063996972,0.41433532736123474,0.8990105646287244,0.6371988029368149,0.3239181034279877,0.22054726131529281,0.6818592966345383,0.8165714245763058,0.3692559265207043,0.7321030049726903,0.7859095352281354,0.42698146775488127,0.23051086964079934],[0.6409706640896801,0.502183316060539,0.7531686574893875,0.5154908667946145,0.788093059800575,0.8705546333873336,0.522853706130267,0.7814798281787055,0.7904030407747069,0.9760075222977938,0.2952500651870027,0.4097245772063581,0.723814709451199,0.6585073200647481,0.6019505181675284,0.9275986924006993,0.5147077982087844,0,0.7899769008607673,0.6372113912475392,0.8109390704696415,0.6597006989830434,0.2740282780762129,0.23827865885309235,0.3192858428127579,0.14703107649744238,0.6781906277706103,0.9579149009057127,0.7674545948395044,0.4732906211789909,0.8131058493578854,0.864526700961776,0.8812270605168322,0.4853655931655191,0.4635787600907445,0.7741148332251881,0.591861729105351,0.7587391874665318,0.49521599145600176,0.5578748599412884,0.5580182589543919,0.5034745740859726,0.12760456554459446,0.6913171466353605,0.6575742749378963,0.5155812453320467,0.9112890803944665,0.31019357520204005,0.9073275566999287,0.3970207996502318,0.6476449405390768,0.5198629276386527,0.7182126470819882,0.8325323747621272,0.24197680399332458,0.2173833887754697,0.4895658883302347,0.8287309479954602,0.09759889827671595,0.7501957065967357,0.790647417276165,0.5098724718255683,0.9352637084559683,0.29921210840003215,0.559793417200501,0.8686808473881538,0.3511229995633857,0.21109806639921053,0.5451111376167943,0.3249631031896542,0.4821698754767637,0.35087525060405483,0.07085233011511814,0.6636371918937396,0.31600346776576016,0.1857142304910126,0.8359120986314332,0.6167909304634334,0.7618500316814659,0.6868605634273904,0.3484564365613902,0.40901970717715513,0.5287226368589719,0.7216866972487257,0.8087167877858289,0.5358603479132628,0.6367622570817734,0.417687190163064,0.7987595337494681,0.6779379858791611],[0.47315585747978883,0.735277397951946,0.08746022967510118,0.45369350356040844,0.7057360398798713,0.35145681762852876,0.8618626667342697,0.04001400247734034,0.6307784090719711,0.5814889503171925,0.9220455849176634,0.8892730777935024,0.06423554285329061,0.5176171126442942,0.8827823927342704,0.5631378521347314,0.9493614445465804,0.7899769008607673,0,0.8435870311851693,0.7700920645293953,0.58166105973036,0.7134652092170614,0.7859027076782685,0.7506244403983446,0.7980133518609069,0.8074097770232397,0.5806253546105609,0.5857403520967294,0.7418372272772558,0.3986265503334502,0.13527204783125452,0.3002656821849669,0.36950244325907794,0.4264752974208551,0.252683864589948,0.8728031698439633,0.858360001458203,0.751693438047057,0.23806614945075158,0.6345919569332599,0.9372743029177198,0.767398678889208,0.36132516621343475,0.23334987074074137,0.4142458389681176,0.26343442576791276,0.7847565577475619,0.39803551529033193,0.4730435257755879,0.2367434374548629,0.7275203063782274,0.06065358955567054,0.10036713878065982,0.55921423462249,0.5833885672133236,0.28958676407560086,0.13757027641851163,0.7724411877314564,0.72071517818101,0.43991266470622936,0.3710635856685661,0.6285623095696236,0.5731495151682275,0.9234005565234676,0.5777244751350397,0.430911574532375,0.5687847973147482,0.2596674993214544,0.503252539075986,0.301015439471222,0.5260658738292089,0.711214461384989,0.9563902784929981,0.5547493530516401,0.618914553464263,0.43957791155129394,0.23525380876430677,0.7608832033920001,0.10869703927777859,0.43020969265075104,0.6147622567271553,0.7437877617410715,0.33855977785199437,0.24372585787666018,0.5915323100545923,0.20741929815353982,0.425240024208834,0.801832809577949,0.881848908842231],[0.3708536661110436,0.138052968706923,0.8836632072244452,0.38608174494697667,0.26109368005539507,0.6360900735950947,0.12622929365599575,0.8740136840479925,0.3267700105407136,0.5713473076315349,0.42095644960909445,0.2680182238833146,0.7717411872363643,0.335165440877559,0.060822806541997565,0.5278326149834723,0.21588667658792352,0.6372113912475392,0.8435870311851693,0,0.23578802730735177,0.2738709866349179,0.3553536559305332,0.39192581961327794,0.3062613350737145,0.4864517849148364,0.062070328118595385,0.5499824327216767,0.3448890885818444,0.15906485731523556,0.5436225391277077,0.8053112112010503,0.6884607346601097,0.49575285943765873,0.8491085670063838,0.6317862813327879,0.061010363331252884,0.12047199281892533,0.13677452961700942,0.7673777093731514,0.19791736249858366,0.2141028504340326,0.4984474053269521,0.4934591446198533,0.9004296096876248,0.4281437583173908,0.7523440972067537,0.3189401304843466,0.6374819808834068,0.43342673812774,0.5952829202693497,0.13009445009549056,0.8018595846585832,0.7983361094644966,0.5155425135702983,0.6882682070719016,0.653753319907081,0.7652708908162489,0.5285513019123054,0.20994003769768957,0.49018204988003045,0.8531415847488418,0.485882992772416,0.7920104870728462,0.1435179738526909,0.4504849780861772,0.6595283179171284,0.6258881247265328,0.7777515987607334,0.47340850870329587,0.6270827697606559,0.41412116307815194,0.6393332278866116,0.10718324259176533,0.7944899530575339,0.5169659730996399,0.5306037483989966,0.5993938104918959,0.18826349958721952,0.8200241960631013,0.6334745272062441,0.2836905160313353,0.11439816506088264,0.5283799126081009,0.665024743534155,0.24302660864811557,0.6262467531484724,0.7901008613244127,0.19954789626626268,0.03420897974685425],[0.2977944320545197,0.3083824081211859,0.8340484830347603,0.39057430944399346,0.05327467082294664,0.47898941345023405,0.3669797231882065,0.8110582178635477,0.13549423518473885,0.3507851180870537,0.6483466094765872,0.5028690389110128,0.7089000069810114,0.2511706300672908,0.3080376799966171,0.3152381129581384,0.4630141077091993,0.8109390704696415,0.7700920645293953,0.23578802730735177,0,0.1965619068316707,0.528316888158432,0.5878445290999537,0.4954227529196931,0.6776200782627606,0.16265513641910356,0.33073708853357503,0.17665020273418772,0.3401498784386636,0.39168288198739865,0.6926037782153566,0.5397871957489598,0.5053632879679983,0.9011621672131795,0.5182314858208134,0.3083356149823113,0.13204014747426773,0.3217815381784363,0.7694788456827127,0.2469306861011627,0.4605210390497806,0.6799978714036343,0.39729052704361967,0.8914508943009879,0.42697215701266367,0.6071092465706011,0.5198552439128173,0.46417421408333315,0.49291174217720635,0.5342667386562175,0.28776006936633763,0.7476379422897474,0.6969896682323885,0.6271744090771842,0.8002699607682711,0.6670736759024605,0.6576454679791733,0.7087639645209036,0.05360921233947374,0.33809301502904654,0.8891219598742904,0.25809756172363046,0.8911161875592541,0.3909531895933222,0.24409339606054545,0.7252515232862788,0.7378210366624978,0.786484546565896,0.5586225282150397,0.6411020654931358,0.5016399129793939,0.7920867099817733,0.3302835350766922,0.888261615931059,0.6503402293964842,0.3637263394132129,0.5530571830907667,0.040119260781537866,0.7820837756284454,0.6989177042454028,0.39630399170130776,0.284192493540355,0.42105713453002375,0.5429061998059416,0.28186423117867165,0.5744307588630377,0.8476126936253896,0.033970966462271435,0.2329049702110215],[0.09701174105437914,0.23410989242200483,0.6369280951611094,0.18475319011216038,0.14306992893084453,0.35166670325370036,0.3495925076600713,0.6185582330621378,0.11939615407294517,0.33258091947050733,0.5675239709002187,0.4500606007190812,0.5152506427887902,0.05304367029668725,0.3325809194705073,0.28352914954033415,0.45481258702473576,0.6597006989830434,0.58166105973036,0.2738709866349179,0.1965619068316707,0,0.39726056611897376,0.47177799558552364,0.3840640923025303,0.5491747021296041,0.22137241278207873,0.3117000436620142,0.09926813216782729,0.26059411653827524,0.259607285109669,0.5258455726446859,0.4029733699268816,0.29767563235594974,0.6949061042485004,0.3501234601841561,0.32587179920430137,0.2650823203788213,0.25384517778533383,0.5617269232720934,0.11209863223015874,0.4469038461543715,0.5423757090077163,0.21434391677976275,0.6853289900076305,0.2193482083832417,0.46685312250989774,0.41715100190270904,0.35710025913409854,0.2968295151306219,0.3371185862498457,0.21472307574927763,0.5512390172328748,0.5227365362211457,0.44554810759637276,0.6122471410864914,0.4588661210835129,0.48704722658547805,0.5681159850687933,0.13564217390671954,0.20764288179551812,0.6813467735703234,0.27103440684453517,0.6961592865970027,0.39973327971633393,0.21124468719464373,0.5233348523116698,0.5516258383019687,0.578421617659045,0.3686550437102161,0.4329493395175657,0.31676289401830326,0.626387587736076,0.39272109197177035,0.6915669178443639,0.47933888639937616,0.2513207923837126,0.35144182115586303,0.1728158919853668,0.5810389350887318,0.49741355217496136,0.24206266514767744,0.22374379257067864,0.2465988151784511,0.38176975519975453,0.11453847221216,0.37484729732623456,0.6425374152778869,0.21703245258257928,0.30324967859102475],[0.40747976133052066,0.21652591768842305,0.7127608399327106,0.3054939329142824,0.5106445448262902,0.6767426033953781,0.2561221970969078,0.7237721355063932,0.5239579170526136,0.7341246365473877,0.1996767648979046,0.19053170997759847,0.6382281399067747,0.4117453460650939,0.32928678797748523,0.6846430819247861,0.28534519725486995,0.2740282780762129,0.7134652092170614,0.3553536559305332,0.528316888158432,0.39726056611897376,0,0.0698564758408295,0.046671085377065887,0.14092598130577602,0.39273455768598,0.7142589174965814,0.5081154002465621,0.1880931974464565,0.6019571739086701,0.741287785556482,0.703881553512088,0.33813582755069854,0.5501448087546719,0.6069156078185479,0.31828888063442734,0.4736021188925143,0.21025925132770062,0.5417266407626392,0.283252315855603,0.27214941755322114,0.14001325613119767,0.4916718245871699,0.6713026105750313,0.32563375571735825,0.7495092302259522,0.06660201827084532,0.7037122064587833,0.23087036867951471,0.5034640031603903,0.23421511139444778,0.6502147756693499,0.7179346801835645,0.19206768750991032,0.34219093912550236,0.4351972085597022,0.7006303182339239,0.1689454096160571,0.4695340917453041,0.5670960285010288,0.5724041270721246,0.6797340759902962,0.4505232707552482,0.30587143500877156,0.6174772419465012,0.36749709959391563,0.28492321240589774,0.5414018209915015,0.20525238451366787,0.4143704783729158,0.17606373267736325,0.2727244318632286,0.39922998804827975,0.4574288775383145,0.16685294317946123,0.6149013272285758,0.4844801109836938,0.47832583949688057,0.6418357585446308,0.3465841130399372,0.14641223114612215,0.24309074186551416,0.5279764289398294,0.644490593458315,0.27120771382925507,0.5110692197696155,0.49061589463036326,0.513990902951128,0.39801890087046105],[0.4877182943901752,0.2686017140764327,0.7797082277835583,0.3869877230579441,0.5760590776431498,0.7582583923315823,0.2730115034738763,0.7935623160102045,0.595767207404094,0.8117247939831123,0.12464056476776986,0.16749236787799746,0.7112747229137792,0.4901115146780093,0.35256484319548426,0.7622230555838463,0.27214941755322114,0.23827865885309235,0.7859027076782685,0.39192581961327794,0.5878445290999537,0.47177799558552364,0.0698564758408295,0,0.08080989792289138,0.0829059752820306,0.4396744424362435,0.7915987583804525,0.5826697644045982,0.2373619417910254,0.6831281737733171,0.819382296610068,0.7852486988363085,0.4151685844910707,0.5880738354314914,0.6877487017951069,0.3427137734786463,0.5180696072359546,0.25767332272263355,0.6018972696392243,0.3536285162865723,0.2599583465043028,0.099916635225268,0.5731960703822445,0.7278462169149811,0.40647819708829713,0.8303864835581357,0.06140266558430681,0.785031715758108,0.30768831693420207,0.5821564561348389,0.288663473462897,0.7208620103292217,0.795057161021781,0.23880642599230315,0.3604810954344821,0.5000248651338353,0.7789974430793284,0.12931444621789462,0.5321905687853551,0.6475871227548285,0.616591608214557,0.754436709060282,0.46817420151212064,0.31091181855609396,0.6936101610295979,0.4149484563793804,0.3109751162059278,0.5991353223083633,0.27205346853462475,0.4810521416121531,0.2518534358502931,0.2603289758641057,0.4137981146707365,0.47809240332601705,0.19638531071331228,0.6954607814280573,0.5618005195706164,0.5367224468228643,0.7087639645209035,0.3970474473149214,0.2254206533286121,0.2940634625824557,0.6094829973272762,0.7252699968400007,0.34670569345641283,0.5879171901018423,0.5300913657462384,0.5691247746120848,0.4308223618807281],[0.40942402008020046,0.17665020273418772,0.7555642752852573,0.3214057192655173,0.48389532049675665,0.6874372027881345,0.19956723157298215,0.7638660911090343,0.5057291525377736,0.7265103602425739,0.18008877609851937,0.13652670491946367,0.6748990318089096,0.40721984499970515,0.27482769563318216,0.677074752385273,0.22773488091300934,0.3192858428127579,0.7506244403983446,0.3062613350737145,0.4954227529196931,0.3840640923025303,0.046671085377065887,0.08080989792289138,0,0.17209129301655074,0.34971307595495454,0.7060547713580481,0.4945817549552926,0.14579095362337915,0.6081380362863383,0.7691581078018664,0.7190365979414662,0.3708536661110436,0.6066690707952327,0.6264153242177941,0.264126358656258,0.4292103593806623,0.166730888151417,0.5900476925499257,0.26367680006822314,0.2144884332466791,0.180762043327596,0.5040952356944661,0.7212057426571157,0.3473357310646592,0.7682369972047858,0.025228961321660172,0.710907426223634,0.2659418329154471,0.5310052786284799,0.196431109282222,0.6896613788108914,0.7479193774319784,0.2484214820242694,0.4004837618154827,0.48098582594035033,0.7280081980870979,0.21082289197944526,0.4397558743145407,0.5693263223314478,0.6273874729514967,0.6661122525736565,0.5088456187859525,0.247834585270012,0.6067835466353428,0.4222478446181351,0.34322432977032874,0.5911056029535809,0.252508711971639,0.45886033456197084,0.2145426031190795,0.32611370528209044,0.34284820168483926,0.5157619559460505,0.22519086076221506,0.6172867952386547,0.5152196381649581,0.444364500609828,0.6848932918899051,0.400480458723714,0.14855074078236544,0.20244139640192316,0.5414313579441521,0.6641147988835238,0.2609139426612544,0.5425452265420823,0.546949248624951,0.47722437883924806,0.3473698581345126],[0.5523407578874165,0.3602432409827713,0.7801777182588623,0.43987648714032757,0.6624204888286068,0.8105914586245159,0.366548035549335,0.799661093555867,0.6764617333907466,0.8831065237512099,0.15295120980178364,0.25118616807812716,0.7256338314721715,0.5604886141306734,0.44656528755737274,0.8337264771388435,0.35632419238958407,0.14703107649744238,0.7980133518609069,0.4864517849148364,0.6776200782627606,0.5491747021296041,0.14092598130577602,0.0829059752820306,0.17209129301655074,0,0.5331584336447802,0.8635861900595909,0.6598628995641138,0.32954223252301723,0.7413022496856674,0.8473036971078085,0.8317918602048149,0.4453783575125255,0.5486209897801749,0.7297068636730737,0.4368666122835379,0.612061645345085,0.35043564267604976,0.5929187170291816,0.4358060913752701,0.34495017291060937,0.023952388642519657,0.625666015526714,0.7110939232541756,0.45207587005237393,0.8717374082163397,0.1559750012051405,0.8412471119904146,0.341189246663012,0.6146318500860772,0.37967769805851537,0.7296021885182741,0.8198523072977586,0.22877326283754318,0.3066935221915258,0.501292363694302,0.8082254500457385,0.04318316509204331,0.6202581214526504,0.7102458212591232,0.5843189737491473,0.8312396813087637,0.4097245772063581,0.40143395312760044,0.7681113069122781,0.3926840589454517,0.26861142862160536,0.5863166085581613,0.2874006748504974,0.48620575268478833,0.28604107913892546,0.18377349368158835,0.5060079833955695,0.4223607764904268,0.17223199959701815,0.7575861900772722,0.5898508246309833,0.6269442202494135,0.710038355851298,0.3796811767312925,0.296370231238262,0.38616388076027147,0.6602033933255805,0.7665594575247977,0.4229782451735114,0.6141077762787986,0.4938147729795885,0.6606733155125432,0.5253768157060642],[0.325609538493687,0.16475880858292732,0.8543371380447835,0.3632291789205888,0.18812045554425563,0.5774911407464157,0.19406253396677534,0.8409342117711235,0.25707117105034916,0.5003360514384968,0.4830512372877466,0.3331499128970365,0.7377810748731506,0.2854368537818471,0.13455691758204308,0.4578262979115409,0.28870426671401545,0.6781906277706103,0.8074097770232397,0.062070328118595385,0.16265513641910356,0.22137241278207873,0.39273455768598,0.4396744424362435,0.34971307595495454,0.5331584336447802,0,0.47908096613412826,0.278941725967546,0.19326692555168007,0.48502858327401327,0.7586455266603,0.6322177436427887,0.47805626635671233,0.8497267347501387,0.5831368561626592,0.13418403749293076,0.06997328476990035,0.1715571085597421,0.7518717559754842,0.17524977992576515,0.2862422152583793,0.5413525892313599,0.4465801418633851,0.8828554465951772,0.405173872222292,0.6974140939667344,0.36793846687949855,0.5754704352382343,0.43003404791187605,0.5594812559385137,0.14887330023263465,0.7705516631845648,0.7544846866009651,0.5321755495689998,0.7072563303832505,0.6402130257327436,0.7195394595343866,0.5712025166031152,0.1374242508964952,0.43070235787867583,0.8487558069840122,0.41356767290233787,0.8075144810994639,0.21706816560217496,0.3808135806592815,0.66260626373129,0.6441834576028913,0.764339903236148,0.4798792475789864,0.6133524251288083,0.41988522159650343,0.6724458113705212,0.1705662334226277,0.8082254500457385,0.5415371857407265,0.46877246071656886,0.5676579318112936,0.11453847221216006,0.7934270519901416,0.636113191478721,0.2938808420547794,0.13815295524877574,0.4795661876255259,0.614720964228196,0.22210731795260222,0.5934498932762338,0.7919444213703615,0.1287338718191027,0.07327488620499172],[0.30532219243640846,0.5533632559962958,0.6694942814492351,0.4335368343389952,0.2821053024198106,0.21934231534395085,0.6569555936617979,0.6307890041824823,0.21207372348315215,0.009846535980932075,0.8908854390404726,0.770097288759153,0.5450915766345229,0.2914473648780835,0.6200663581170818,0.018668434150826353,0.7618482717084895,0.9579149009057127,0.5806253546105609,0.5499824327216767,0.33073708853357503,0.3117000436620142,0.7142589174965814,0.7915987583804525,0.7060547713580481,0.8635861900595909,0.47908096613412826,0,0.204894362845782,0.5817161241994959,0.18363413166655837,0.45798865028871405,0.2781536564068006,0.501950120773961,0.8693053704485286,0.323085448364337,0.6166306110214445,0.4725798820571132,0.572515995917666,0.6876533199638255,0.4352459497124715,0.7558073282184732,0.8526581752135031,0.2903359862145955,0.7762653886910047,0.44337531108212597,0.3375281775280913,0.739856270252081,0.178520480604565,0.5576262160860752,0.41857091451138057,0.5327884972888224,0.5894750127223845,0.4784480712141133,0.7193737396715821,0.8636872851372336,0.6211708927705498,0.4366085503441905,0.8760663897730522,0.33059790360176844,0.17167595071908606,0.8365800078437289,0.06452197147180122,0.92535524722818,0.6979111747875255,0.09065000178497241,0.7385799062344569,0.8103596357304961,0.7110656692217344,0.6343728401237795,0.6023009557012646,0.5968666300239522,0.9118729989120111,0.6603026715066047,0.9154847919015757,0.7653970405464123,0.14270879306287904,0.4531783476399027,0.3615003179674264,0.6416024001374955,0.7168535201158637,0.5562878904066395,0.5390337319350732,0.28043226849511954,0.3254197767150966,0.4336469033309016,0.45950220459972574,0.830283006897798,0.37635185454063436,0.561363551478905],[0.14321063157439595,0.3368140067995358,0.654612033649497,0.2675895562289102,0.1118343620277498,0.2951968332094043,0.44253385519702415,0.6285282866745258,0.03385149312169943,0.22622317930469174,0.6763153190674122,0.5535367040241225,0.5277922392622418,0.10559187944129016,0.41186107838592034,0.17843456511217506,0.5478915861089968,0.7674545948395044,0.5857403520967294,0.3448890885818444,0.17665020273418772,0.09926813216782729,0.5081154002465621,0.5826697644045982,0.4945817549552926,0.6598628995641138,0.278941725967546,0.204894362845782,0,0.3653475133712896,0.2052649359475484,0.5043010774975385,0.35435451161214954,0.3673247192686109,0.7637502263314309,0.3303472279864732,0.40720684494953935,0.29459733592376225,0.35595406097314564,0.6108316133005369,0.22052967304259943,0.5412861194021493,0.652459067758038,0.21585676158550263,0.724798776468249,0.2929705661092785,0.42145649703583044,0.5272493970819798,0.28703629037623146,0.38946606705436554,0.358478367668685,0.316227743689248,0.5682310287500411,0.5092168781388768,0.5452309336409836,0.7061609837344047,0.5184241339667999,0.4695765263957862,0.6778096557272167,0.14250583427488023,0.15085385502381876,0.7433371147515401,0.16010623465173887,0.7835385683451414,0.48656109357453703,0.10277159530580135,0.6038444917428395,0.6473805892616339,0.630377785679716,0.4645860153425474,0.4943235329815047,0.4170112925572448,0.7307473024241921,0.46065940771063574,0.7771650443128972,0.583132278612126,0.18173587749907746,0.3821329076269305,0.18203129001628543,0.6070652430847031,0.5789681366939217,0.3522806720161726,0.32265001933498005,0.23552381604028397,0.3545887563787022,0.22526556779202,0.4003912652373529,0.7152652845488352,0.2148312903038199,0.36379523669899294],[0.3186641243627746,0.020200413190469113,0.7669319736445873,0.2777729276337397,0.33447392688616884,0.6044082338207905,0.1087987894763461,0.7649992489459805,0.3679850854727405,0.6029259235786731,0.3036514556078668,0.17785361680864867,0.666792816253704,0.30122435341840564,0.151947502038935,0.554444029551146,0.20046758578473237,0.4732906211789909,0.7418372272772558,0.15906485731523556,0.3401498784386636,0.26059411653827524,0.1880931974464565,0.2373619417910254,0.14579095362337915,0.32954223252301723,0.19326692555168007,0.5817161241994959,0.3653475133712896,0,0.516780521912378,0.7302722212953335,0.6463159151324283,0.36891268108319436,0.6899932329981453,0.5683155360968011,0.14030019141243905,0.2738709866349179,0.01077563495080642,0.6288599328136443,0.138052968706923,0.18972891297067712,0.33653262006754914,0.4330871032444789,0.763163614640193,0.31600346776576016,0.7035675637528719,0.16807650893713721,0.6188433054932116,0.28661213390645396,0.5004530298401106,0.0414686479937625,0.6906429021937013,0.7160214850050843,0.3472333303847178,0.5184267021357721,0.514487916178407,0.6888203666038686,0.3663284053303723,0.28755995352602337,0.4702041223065951,0.6990767012711118,0.5328960046982357,0.6231490654505704,0.17083497124565386,0.4797795333109473,0.4997214758255844,0.4564062209906497,0.6359870839066659,0.3132330490076885,0.4887585753593515,0.2563559461413617,0.4701786951269547,0.22981845477338164,0.626387587736076,0.34630660316897344,0.516842346205217,0.4952938725556255,0.2886498744811693,0.6992433226321036,0.4743897928204893,0.12813141199268238,0.04503807754203507,0.4710481083217715,0.6049582140334848,0.15902498421427855,0.5233424860639667,0.6302675173964041,0.3201116207431985,0.20381041100777533],[0.18870560775301767,0.49490703472866854,0.4817699901232974,0.2902638529938713,0.32766183241964947,0.08086876340897138,0.6173647122247241,0.44672271870955627,0.24454012221943885,0.19158601109433268,0.799718141833967,0.7033924308047095,0.3551087646916194,0.2054029538209173,0.6038444917428394,0.16004282015728585,0.721463900372192,0.8131058493578854,0.3986265503334502,0.5436225391277077,0.39168288198739865,0.259607285109669,0.6019571739086701,0.6831281737733171,0.6081380362863383,0.7413022496856674,0.48502858327401327,0.18363413166655837,0.2052649359475484,0.516780521912378,0,0.2954141390286176,0.13754290751873152,0.32881530968366746,0.6769838227555689,0.1345289845647053,0.597128317643523,0.5101151718970727,0.5148060687060124,0.4926445668223153,0.3693881364860002,0.7126255226449605,0.7242810104831705,0.11164682797580991,0.5820028357359948,0.28586268572403556,0.20453574831363958,0.6445403857268766,0.09135276932387902,0.4044449360922598,0.22412515712736483,0.4778338262845077,0.3991073829391805,0.3067320054484449,0.5636988888237283,0.6917237055994192,0.4307485171162346,0.2651118335678631,0.7439138947333661,0.3586328082019105,0.04318316509204331,0.6425020381558038,0.21956025777184832,0.7439949691107456,0.669877904173026,0.16801590735743724,0.5569083649782893,0.6431364548783695,0.516241829300983,0.4783036122722083,0.41368290939231017,0.45236640409363926,0.757669362711788,0.6622508235400211,0.7326976345391961,0.6160756765833735,0.03040097650787577,0.25955207700517613,0.3986663647620679,0.44897430453628473,0.5370922119891182,0.4484065231137893,0.48928605846554846,0.09007626520984419,0.14763042685547714,0.3477071624541747,0.2644864645447266,0.6404113907865503,0.4314679786598043,0.5693919274332552],[0.4229124654150146,0.7177312681802391,0.23439222059329182,0.4443376325971205,0.6277175816433963,0.22766094468642878,0.8464474337551299,0.185686640051706,0.5469565596802402,0.455652325826582,0.952621119154388,0.8965451345952687,0.15143081216571858,0.46154343368701145,0.8540981594626605,0.44472258963540434,0.9422751141503383,0.864526700961776,0.13527204783125452,0.8053112112010503,0.6926037782153566,0.5258455726446859,0.741287785556482,0.819382296610068,0.7691581078018664,0.8473036971078085,0.7586455266603,0.45798865028871405,0.5043010774975385,0.7302722212953335,0.2954141390286176,0,0.16852281615099496,0.3927985137062698,0.5542852924522814,0.16472794049067335,0.8452472276340866,0.7982604746911024,0.7360352076816898,0.3558503573773679,0.6034351790018401,0.9311863422744949,0.8201731375958725,0.30063206759701944,0.37740298237632725,0.4119382157003966,0.11986274125678845,0.8052845492452375,0.26884447677714024,0.5001206349188816,0.2265491475618999,0.7061609837344046,0.18416317970695414,0.02695942495623223,0.618348665796119,0.6769245143541425,0.37104224317626744,0.02987998120195013,0.8301245336108568,0.6515298298346361,0.34527069413214084,0.502249545420962,0.514612096145526,0.6845159877493302,0.905796028954166,0.4728581215275843,0.5217650743418845,0.6511540728935731,0.38018178320147467,0.5484557415298925,0.37298309992808837,0.5561512470607421,0.7905761484862294,0.9226358947385914,0.6674827206044628,0.6788750592122796,0.3322129441891019,0.2463826064229824,0.6922808903582174,0.24326168490053257,0.5146534829570196,0.6185323109922142,0.7211500132323967,0.2676772917641471,0.13813478084140698,0.5659422999906891,0.22153008743071798,0.5433871323173701,0.7293450288878313,0.83887674725045],[0.31694522659109414,0.6274556383899792,0.39546890718249517,0.3870662580357406,0.4762097316883961,0.05116510027656977,0.7533537496591315,0.35179782022263834,0.39269079247523614,0.27546373068720204,0.9100433327982598,0.827857363368019,0.2812142069649635,0.343849049198553,0.7460621297428452,0.2662701998063937,0.8556016833150245,0.8812270605168322,0.3002656821849669,0.6884607346601097,0.5397871957489598,0.4029733699268816,0.703881553512088,0.7852486988363085,0.7190365979414662,0.8317918602048149,0.6322177436427887,0.2781536564068006,0.35435451161214954,0.6463159151324283,0.13754290751873152,0.16852281615099496,0,0.38425669268907175,0.6605923178810885,0.09679858230164096,0.7387141716066006,0.659254445191903,0.6470665343339582,0.4623396578458901,0.5038444199200776,0.8459650130937326,0.8102006336676456,0.20413238318682908,0.5215123575224268,0.36853690156861657,0.055662447540952203,0.7559261654992624,0.08866149412312266,0.4805545562948504,0.22861467549914863,0.6120616453450849,0.3244369590305124,0.19206768750991032,0.6275834289957086,0.7273821653412477,0.4338914037403434,0.15152260232512257,0.8260245832104547,0.5078429414824134,0.19232812069102131,0.6164637487019976,0.3375632629993781,0.7598745817158945,0.8083848350819998,0.30230152763842766,0.5787260704249346,0.6880756265116027,0.4875192505153134,0.5460956343953844,0.4247817439079929,0.5344686868493416,0.8165911486272062,0.8073067218473275,0.7455876678782549,0.6851805315632294,0.1654442321046794,0.2643829205701244,0.5478623901844528,0.38231608601489775,0.5641104411678147,0.5594955571289847,0.6248687748977888,0.16627243615276416,0.06816911926911136,0.47564015949799465,0.2539989527451139,0.6355349966590041,0.5802298854834423,0.7160813484866558],[0.21245064880210165,0.36767657913654717,0.3865332822638487,0.1053827152955571,0.45176459128587465,0.3755088976439053,0.4892398579239976,0.38723010731421015,0.4074797613305207,0.5162547231018795,0.5493033376744778,0.5081049237042222,0.2936000171153425,0.253414133325628,0.5216119269295891,0.4725798820571133,0.5710600258031927,0.4853655931655191,0.36950244325907794,0.49575285943765873,0.5053632879679983,0.29767563235594974,0.33813582755069854,0.4151685844910707,0.3708536661110436,0.4453783575125255,0.47805626635671233,0.501950120773961,0.3673247192686109,0.36891268108319436,0.32881530968366746,0.3927985137062698,0.38425669268907175,0,0.38666659306252665,0.27773059351809964,0.5107279438294535,0.5460565808030009,0.3818181948880212,0.262164655494961,0.2913889728740016,0.5586559473454991,0.4203518473133088,0.20592286944263552,0.3936491767304231,0.06672367672715107,0.41743345674758353,0.40583958705183354,0.41528976600315953,0.09582780561357976,0.15759133990419938,0.3641504010604899,0.3125241477151899,0.36829334131980496,0.23173883029060238,0.3518877016710469,0.15209720343358676,0.35276288405658374,0.43352766069463017,0.4424109501396603,0.3200295458873791,0.37209372436903254,0.5031573519003426,0.41286277023758683,0.5513430015100659,0.4339005698957353,0.22779742450517088,0.30273482800880586,0.2753594037246887,0.15085385502381873,0.12544715947080579,0.15172269277363432,0.42268059067325336,0.5987183910594793,0.4041536586341116,0.28936977398591934,0.35913980277404456,0.1349659905019094,0.47593340474831064,0.3186806088128925,0.2045168573858494,0.23547424498203168,0.38109097227776956,0.23039279268125532,0.3132330490076885,0.24449229596616615,0.16127520863704484,0.33651307087788596,0.5212109829350614,0.5388977516747183],[0.6092944835260629,0.7024150867506443,0.3496980071180162,0.4990022032234377,0.8494928001757749,0.6843438848099686,0.7969904362533461,0.39428013553048863,0.8050512200045192,0.8794887707135155,0.7095666216174875,0.7520161629757233,0.3913350916151775,0.6515298298346361,0.8535759503947132,0.8424401879093738,0.8457427543994274,0.4635787600907445,0.4264752974208551,0.8491085670063838,0.9011621672131795,0.6949061042485004,0.5501448087546719,0.5880738354314914,0.6066690707952327,0.5486209897801749,0.8497267347501387,0.8693053704485286,0.7637502263314309,0.6899932329981453,0.6769838227555689,0.5542852924522814,0.6605923178810885,0.38666659306252665,0,0.5623391468692702,0.8419172262243447,0.9251663556096199,0.7095364201207475,0.1887463685696652,0.6666704053200357,0.832453352983088,0.5130058429266551,0.5696285128838982,0.21143392977544576,0.46434584123572104,0.6558307327641278,0.6270294850438912,0.7332369642535753,0.4081126331663727,0.4421050419143813,0.7075251741210243,0.3610622842576377,0.5157464688910167,0.3465917130247569,0.23663380718834742,0.23762966581589573,0.5343290763147099,0.5015709524518679,0.8370854067308802,0.6878946692076352,0.04685747197564531,0.8854267943105848,0.16522887958033367,0.8549704267547796,0.818093726657003,0.17860635730307828,0.2687134110245381,0.1636596633101052,0.3652463942847162,0.2593110372848923,0.42361673122662935,0.3828685614587605,0.9311358050947078,0.14543607272124376,0.3800636421443113,0.7158325085816071,0.4059178366706622,0.8682183530564941,0.3061457003465024,0.20418915195334353,0.5543165623714438,0.7237017905452089,0.5773224355685385,0.5816105794773356,0.6217192137826382,0.40454634441924797,0.04839575782082067,0.913432727853744,0.8948362188307678],[0.24956526501956092,0.5528498268881056,0.33612185632487956,0.29351973395581854,0.45328962280022106,0.11053786121490328,0.6810579442257838,0.30052742992642073,0.374043408295933,0.3270956770471082,0.8157310724199389,0.7433461303273226,0.21046159127629657,0.28618737342317657,0.6832085036861254,0.3027348280088059,0.7801072264654284,0.7741148332251881,0.252683864589948,0.6317862813327879,0.5182314858208134,0.3501234601841561,0.6069156078185479,0.6877487017951069,0.6264153242177941,0.7297068636730737,0.5831368561626592,0.323085448364337,0.3303472279864732,0.5683155360968011,0.1345289845647053,0.16472794049067335,0.09679858230164096,0.27773059351809964,0.5623391468692702,0,0.6748117802305834,0.6218653525695689,0.5718374619170613,0.36784879964351896,0.43404720274565906,0.7696513621288718,0.7068718227484045,0.1270266492157428,0.44348000980578156,0.26962474922096846,0.130984750678581,0.6632439706710362,0.15993972162412357,0.3770914442890327,0.12044108172703759,0.5396094217381852,0.2547920429648023,0.167210998186709,0.5205667980384937,0.6191519885831176,0.3286233349950826,0.12789750354662333,0.7216514255869307,0.4755256062928782,0.1766212841262042,0.5215123575224268,0.365434165292845,0.6538760611325319,0.7388883179201875,0.313375481391904,0.4713525969220664,0.5796131622547213,0.3926301866699184,0.44012966926654595,0.31803710453938727,0.4320052749862128,0.7086146661470538,0.7498167909514096,0.6400689122113868,0.5787260704249346,0.1759766923339063,0.1567123590882486,0.516277931149945,0.3072233271586163,0.45618803653689477,0.4690585677476501,0.5538232584433278,0.09195885523716639,0.026031951628235274,0.3997928392778171,0.14883089523662907,0.5336080179954751,0.5539676846130174,0.6641490446389158],[0.4141307548272869,0.13241857582876754,0.9058257052610437,0.40858261233994614,0.33121783543628674,0.6890243999200798,0.061010363331252884,0.8999667956719002,0.39289274625469706,0.6380919669484633,0.3564462540865358,0.20191300606477405,0.7992230304681831,0.38321001853531417,0,0.5934386443769305,0.14321063157439587,0.591861729105351,0.8728031698439633,0.061010363331252884,0.3083356149823113,0.32587179920430137,0.31828888063442734,0.3427137734786463,0.264126358656258,0.4368666122835379,0.13418403749293076,0.6166306110214445,0.40720684494953935,0.14030019141243905,0.597128317643523,0.8452472276340866,0.7387141716066006,0.5107279438294535,0.8419172262243447,0.6748117802305834,0,0.18921452350293283,0.12166172596819459,0.7767162082236023,0.2301958696492782,0.14164692171094118,0.4526098430295616,0.5361660886192418,0.9108420446627681,0.4496210770377487,0.8009403604961596,0.2700841447333586,0.6939324406029436,0.4359642652447274,0.6261592493365139,0.13511446163154878,0.826507111359216,0.8354815320654585,0.4962677188447855,0.6643001081425177,0.6622993036951013,0.8044909576671084,0.4825969813652232,0.2797416795753465,0.5449717506189042,0.8508528412526328,0.5545402121949634,0.7705777686372967,0.07137856965446789,0.5159555057784846,0.6516529824960015,0.6032979429709209,0.7849411462858062,0.46520019565764914,0.63614051155029,0.4081450624147127,0.6017885395424123,0.0781058538360251,0.7747815631221376,0.48962020611574647,0.5874356467619977,0.626293701465479,0.26025388911236674,0.8398877162063888,0.6263534488725373,0.27876365927720803,0.11831141090594176,0.5725159959176659,0.7094439201684458,0.2702242321048124,0.6538699246088748,0.7821558068565907,0.2721494175532212,0.08250205871597877],[0.37354542686534,0.24603946470322055,0.911318580086095,0.42952829407459014,0.18112957287581116,0.601140196896963,0.25810260816949016,0.8946544853249352,0.26236841283026435,0.4930088617833515,0.5530571830907667,0.4000872016122127,0.7912817699186584,0.3294624266503628,0.185382890252912,0.4553142793164431,0.34122011036760475,0.7587391874665318,0.858360001458203,0.12047199281892533,0.13204014747426773,0.2650823203788213,0.4736021188925143,0.5180696072359546,0.4292103593806623,0.612061645345085,0.06997328476990035,0.4725798820571132,0.29459733592376225,0.2738709866349179,0.5101151718970727,0.7982604746911024,0.659254445191903,0.5460565808030009,0.9251663556096199,0.6218653525695689,0.18921452350293283,0,0.2518586018691955,0.8194052301276764,0.24709383141743296,0.3412625435544156,0.6213515686215073,0.4896202061157466,0.9485621645031496,0.4707208509316609,0.7259162797261205,0.4456999358469675,0.592583115288988,0.5055396722638791,0.6127705963242828,0.23049400502864692,0.8262520721767177,0.7975407505852994,0.612827277634023,0.7880641215370411,0.7094609108451129,0.760611780987969,0.6512957767520727,0.14046135467752657,0.45527929501992803,0.9220018434173111,0.4011702304683124,0.8875972731247463,0.2667986924996444,0.38131274459562353,0.7394413273555281,0.7249466427611809,0.8330820971157326,0.5584195842966051,0.6826440383813167,0.4985034459576587,0.7539834395647209,0.1909419945861165,0.8879181559631687,0.6230589897838296,0.48797448067154464,0.6245350482115424,0.10229476253750971,0.8529526620567931,0.7128717060927446,0.3742127872642888,0.21946014758149746,0.5195734305537693,0.6508685194729353,0.2929839722249251,0.6491464273094226,0.8679939789537549,0.08722648553714926,0.09958673809188383],[0.3185858119881683,0.008270125068717788,0.7792057536702034,0.28656192496545296,0.3188824766103192,0.6035347666249886,0.09908390413561931,0.7760390180362973,0.3561798854376475,0.5938367281691368,0.31829713233567725,0.18593481532127556,0.6769956838229302,0.298168133680108,0.1332100579249036,0.5457367266023835,0.1970581900099223,0.49521599145600176,0.751693438047057,0.13677452961700942,0.3217815381784363,0.25384517778533383,0.21025925132770062,0.25767332272263355,0.166730888151417,0.35043564267604976,0.1715571085597421,0.572515995917666,0.35595406097314564,0.01077563495080642,0.5148060687060124,0.7360352076816898,0.6470665343339582,0.3818181948880212,0.7095364201207475,0.5718374619170613,0.12166172596819459,0.2518586018691955,0,0.644575652964636,0.1339318035915334,0.18723265523669924,0.3581287999469303,0.4353921412864638,0.7788269663112021,0.32587179920430137,0.7054437449092661,0.18736265776541547,0.6162491462786854,0.3030161533079998,0.5085107353928052,0.028071225905893168,0.701898249631555,0.7228385912939579,0.36864430503206636,0.5403201742565094,0.5301391081234479,0.6946864242015791,0.38799044278293804,0.2709621642362561,0.46699250484895133,0.7176640737713907,0.5216527705395615,0.6447726997086266,0.1600824569601732,0.47031711576442803,0.5192786475638402,0.4781813445082352,0.652284806560343,0.33262837150493796,0.5041823326353775,0.2750509432062141,0.49259597427632995,0.21143392977544576,0.6478183634781778,0.36852974025893526,0.513091460931151,0.5048364094142189,0.27010347127013606,0.7120670714000916,0.49377437326743423,0.14543607272124376,0.026031951628235274,0.47315585747978883,0.608127053967959,0.1605890025122325,0.5327984988735658,0.6499205859755596,0.3003049583462308,0.1816936388681708],[0.46246313953506385,0.6326299007560596,0.18402409520712787,0.3782104196640628,0.7115458376551036,0.48997855599267875,0.7466565848523314,0.21719311728414487,0.6549307027265425,0.6958053095608872,0.7362245401362201,0.7375176370300595,0.192847992138098,0.5082594312966195,0.787963680615642,0.6625335753004954,0.8164464946777483,0.5578748599412884,0.23806614945075158,0.7673777093731514,0.7694788456827127,0.5617269232720934,0.5417266407626392,0.6018972696392243,0.5900476925499257,0.5929187170291816,0.7518717559754842,0.6876533199638255,0.6108316133005369,0.6288599328136443,0.4926445668223153,0.3558503573773679,0.4623396578458901,0.262164655494961,0.1887463685696652,0.36784879964351896,0.7767162082236023,0.8194052301276764,0.644575652964636,0,0.5651120747105798,0.8033876508696003,0.5592309271136715,0.3970207996502318,0.12263836283740956,0.33720054297617674,0.4554920756490458,0.6191196163295835,0.539456292611909,0.3308483957563886,0.2577036476662361,0.6318560963193186,0.167705002909522,0.31757019094783373,0.3547076804918201,0.3399640919533704,0.10277159530580135,0.33427328668143935,0.5582786748536143,0.7088603305834843,0.5112280585131995,0.14250583427488023,0.7123529319109325,0.3234431342204534,0.8082702802187016,0.647915377847631,0.19553949634258622,0.33533810405509173,0.013573477367018826,0.3258879316695665,0.1289760690720314,0.36977021553298833,0.4764468572781783,0.8659611724540397,0.30515035886162917,0.40901970717715513,0.5332858535346509,0.2247766713572463,0.7445082383085054,0.12166172596819459,0.20292408260863162,0.4894681014798922,0.648831150883925,0.3973504423089233,0.3842188678653624,0.5182083633365075,0.21650205304821638,0.17691027064492074,0.7894723708026317,0.8112302891986612],[0.17551179359872404,0.11399797189740601,0.6742800991313007,0.1779397955420844,0.21842115290176142,0.45868381145755416,0.23784254697418675,0.6644692591975745,0.23051086964079942,0.4562113143928894,0.44423611692585013,0.32744913311368823,0.5623344034612616,0.15257864643778357,0.23925713926788197,0.4072458438897543,0.3407877725611363,0.5580182589543919,0.6345919569332599,0.19791736249858366,0.2469306861011627,0.11209863223015874,0.283252315855603,0.3536285162865723,0.26367680006822314,0.4358060913752701,0.17524977992576515,0.4352459497124715,0.22052967304259943,0.138052968706923,0.3693881364860002,0.6034351790018401,0.5038444199200776,0.2913889728740016,0.6666704053200357,0.43404720274565906,0.2301958696492782,0.24709383141743296,0.1339318035915334,0.5651120747105798,0,0.33168997959641977,0.4328023444773784,0.29578187804986744,0.6965438435748628,0.22010128034966486,0.5637935246117575,0.2954629008355913,0.47066158232213395,0.24755639417070546,0.3866050705463559,0.09691148318027258,0.5922788855709701,0.5937355452403464,0.3695667257575708,0.5438259875211031,0.45329547864992176,0.5626379025917655,0.46017782508275024,0.18315256746565747,0.3214057192655173,0.6633428016547865,0.39134522567542884,0.6381024428045899,0.29373377548204843,0.3342024447024664,0.4822001983937231,0.48098582594035033,0.5774287485710012,0.3054767630515447,0.4264349028269843,0.24663571078177118,0.5345683868133314,0.31051909556427226,0.6367181664054469,0.39181449135860863,0.36763351179165477,0.3898426023699069,0.20257487895204054,0.6112229525734264,0.4555940593936126,0.13863377628015994,0.10936251066849442,0.332829969732137,0.46932186233681467,0.035236088969956135,0.4167825789981639,0.6098664244404429,0.2453624001873875,0.23850187153168217],[0.517447327406881,0.20686556789769842,0.9556418437040363,0.4767981493025533,0.4787340854184126,0.8019984662490744,0.08718517919763147,0.957480943951117,0.5332883516660495,0.7773169002310049,0.22558711376664042,0.0820964021774785,0.8616709541825762,0.4955891749261553,0.14428804430704242,0.7308298144820806,0.0016355348081420918,0.5034745740859726,0.9372743029177198,0.2141028504340326,0.4605210390497806,0.4469038461543715,0.27214941755322114,0.2599583465043028,0.2144884332466791,0.34495017291060937,0.2862422152583793,0.7558073282184732,0.5412861194021493,0.18972891297067712,0.7126255226449605,0.9311863422744949,0.8459650130937326,0.5586559473454991,0.832453352983088,0.7696513621288718,0.14164692171094118,0.3412625435544156,0.18723265523669924,0.8033876508696003,0.33168997959641977,0,0.36964170830908605,0.6339322747164294,0.9366816208148614,0.5132652484672099,0.904195053291442,0.19954789626626265,0.8133682525422237,0.4645717226550395,0.6995151954800262,0.22314159750106888,0.8827945687920996,0.916148241129187,0.47436178362553916,0.6234878071124856,0.6908715978168997,0.8896915421403123,0.3975301354676329,0.42726379974475864,0.6637198400480074,0.8515612344300103,0.6979111747875255,0.7320535835888373,0.06452197147180122,0.653792190411231,0.6465620801994321,0.5680619771005524,0.8069974784828774,0.4695454080179836,0.6667125492822016,0.42194968873842026,0.5319502115291059,0.16867385606644617,0.7399486499260605,0.44975091282789714,0.7090416905700613,0.6921164893513507,0.4113496884011716,0.8863550430865946,0.623901341524633,0.3115316009809632,0.21201286959271623,0.6717888041549563,0.806212207045276,0.35919853991588574,0.720214984496544,0.7726165241869272,0.42531168444698164,0.231167675960335],[0.5388853881674687,0.3662563676378683,0.7475447051032635,0.42235136662340905,0.6615232022554911,0.791105422706834,0.3838679563123954,0.7679279722443757,0.6712308477929589,0.8718159981163908,0.18760874576461525,0.2761929607369342,0.6956051572187418,0.5497569672586662,0.4627329643222906,0.822609700358496,0.3814582146887373,0.12760456554459446,0.767398678889208,0.4984474053269521,0.6799978714036343,0.5423757090077163,0.14001325613119767,0.099916635225268,0.180762043327596,0.023952388642519657,0.5413525892313599,0.8526581752135031,0.652459067758038,0.33653262006754914,0.7242810104831705,0.8201731375958725,0.8102006336676456,0.4203518473133088,0.5130058429266551,0.7068718227484045,0.4526098430295616,0.6213515686215073,0.3581287999469303,0.5592309271136715,0.4328023444773784,0.36964170830908605,0,0.6068341734216826,0.6764142510778761,0.4318057837698833,0.8483680787174294,0.17103626520785636,0.8231724794336497,0.3181857169515492,0.5893413844157737,0.3847652575635009,0.6984577535144828,0.7919918537066453,0.19687548624482637,0.2715155532512631,0.46937563597585735,0.781509006663651,0.01844321792919134,0.6210418070033785,0.6952258671465708,0.5487764730361921,0.8231088799500683,0.37523805983567005,0.4224642715662591,0.7587957318747465,0.35794836735688107,0.23299957926434656,0.5521765998063313,0.2601487328133597,0.4550489162756031,0.26417571601835843,0.15288503796466288,0.5252323054182333,0.38756101414248717,0.13888717502302259,0.7421840367706215,0.5634480286734445,0.62996418190501,0.677631928381808,0.34549565016563577,0.2886453413504159,0.39261335011161524,0.6405867370014456,0.7434110392952707,0.41638839696307023,0.5871288017827226,0.45821179321332817,0.6652741605635414,0.5388359313618073],[0.11098265115684226,0.4161338932211389,0.4271397201462118,0.17490715274236243,0.3332130764419515,0.17362584211673235,0.5437965779034807,0.40223398032876134,0.2613680503835908,0.3026958554322787,0.6955281604650028,0.612474025590385,0.3006495038004243,0.14971062467447271,0.5445264565460903,0.26232369859060545,0.6440609782035093,0.6913171466353605,0.36132516621343475,0.4934591446198533,0.39729052704361967,0.21434391677976275,0.4916718245871699,0.5731960703822445,0.5040952356944661,0.625666015526714,0.4465801418633851,0.2903359862145955,0.21585676158550263,0.4330871032444789,0.11164682797580991,0.30063206759701944,0.20413238318682908,0.20592286944263552,0.5696285128838982,0.1270266492157428,0.5361660886192418,0.4896202061157466,0.4353921412864638,0.3970207996502318,0.29578187804986744,0.6339322747164294,0.6068341734216826,0,0.5022707370137616,0.16460441406667595,0.25886857335446006,0.5409462598568304,0.20509543026836777,0.28277185422716217,0.13298436209122277,0.4021714824977377,0.34072982990070605,0.29673683022540803,0.4408642997364625,0.5693192927740115,0.3205216908459299,0.26129324946303406,0.6252536268667497,0.34814253685348484,0.10718324259176533,0.5403078426096027,0.3049483352458853,0.6249265175253095,0.6009980027308991,0.23934393071346668,0.43779440843486017,0.5200191393135041,0.4188239775056057,0.3556576873097507,0.3007235968075645,0.33250577370269335,0.6346993813013851,0.611290701439719,0.6144427122114912,0.49403287565443793,0.14207255036487063,0.16123584526337434,0.38853848660176316,0.38029294225609767,0.4169445970429002,0.3441667364303326,0.41604478113411475,0.026427100063767375,0.1618724326281624,0.2631423036674417,0.17567173266657937,0.5288158404103247,0.4289509029983317,0.5265820885304694],[0.5822137669992212,0.7667623522594598,0.14001325613119767,0.508115400246562,0.8315577934231332,0.5611235522827825,0.8809129234868028,0.18978974053582853,0.7698081622134288,0.7816205615622537,0.8603402757477006,0.8691245516479447,0.22870530964706262,0.6287153902284991,0.9220630809440529,0.75369889811838,0.9497849068395665,0.6575742749378963,0.23334987074074137,0.9004296096876248,0.8914508943009879,0.6853289900076305,0.6713026105750313,0.7278462169149811,0.7212057426571157,0.7110939232541756,0.8828554465951772,0.7762653886910047,0.724798776468249,0.763163614640193,0.5820028357359948,0.37740298237632725,0.5215123575224268,0.3936491767304231,0.21143392977544576,0.44348000980578156,0.9108420446627681,0.9485621645031496,0.7788269663112021,0.12263836283740956,0.6965438435748628,0.9366816208148614,0.6764142510778761,0.5022707370137616,0,0.46643757911901107,0.4982151713837103,0.7492033344036011,0.610628194632707,0.46513453043708486,0.3577604765773577,0.7657193301869196,0.18645084865175052,0.33985954390530454,0.47795896125971454,0.4301850449696791,0.23703372394370978,0.3695560127605586,0.6721810934880184,0.8325904268661618,0.6091673139911219,0.15311652314043384,0.8099554452020552,0.38328241087268344,0.9424863011066524,0.7491657597707622,0.30680040864527963,0.44024716989493556,0.11843703514491342,0.457283749715987,0.2630382530434797,0.5032075917692941,0.5750552498244675,1,0.3633889227427134,0.5284000788786651,0.6239184770399027,0.3311106197740644,0.8694228055150279,0.12756546057768894,0.3206896733421561,0.6237663831941096,0.7827026879843512,0.4953126696492899,0.450143149082729,0.6496818464530497,0.31497981773338335,0.23533649539976606,0.9139755853816905,0.943969001309459],[0.13906791331903454,0.3097745646385351,0.4449104739480527,0.030497946474070746,0.37361963510433943,0.3477071624541747,0.43594905864763206,0.43900433358007945,0.33170583871057996,0.4593288124706183,0.535014321410125,0.4732457041073199,0.3394565494300652,0.17722764517514167,0.46003931515640367,0.41334671562996705,0.5250344914440289,0.5155812453320467,0.4142458389681176,0.4281437583173908,0.42697215701266367,0.2193482083832417,0.32563375571735825,0.40647819708829713,0.3473357310646592,0.45207587005237393,0.405173872222292,0.44337531108212597,0.2929705661092785,0.31600346776576016,0.28586268572403556,0.4119382157003966,0.36853690156861657,0.06672367672715107,0.46434584123572104,0.26962474922096846,0.4496210770377487,0.4707208509316609,0.32587179920430137,0.33720054297617674,0.22010128034966486,0.5132652484672099,0.4318057837698833,0.16460441406667595,0.46643757911901107,0,0.41224662459589984,0.3839230218462355,0.3813300652874336,0.10691949839864255,0.17551906652103336,0.30316753203871294,0.3652788998065182,0.39340727266320635,0.2673505808351792,0.4100055496073658,0.22958720820282466,0.37051185564760214,0.44945873089199573,0.3640888149821517,0.26656393079105034,0.4504849780861772,0.4371093585514111,0.4804522125308501,0.49752050765143313,0.36763710092383295,0.29921210840003215,0.3554129988998809,0.3517416330285943,0.1817217989804897,0.203184028813932,0.15649391990815303,0.4613851791699416,0.5356589132042735,0.4732906211789909,0.31858168976982926,0.31007935371049594,0.16763668343484653,0.39789925715157737,0.38029294225609767,0.274456815248925,0.19508566363715032,0.3197667697673217,0.19721466604465931,0.30718917275805746,0.17376538428580965,0.19570368336038196,0.4131224386354032,0.44314488905160876,0.4699413100471905],[0.3766359394680931,0.686033736227144,0.3619378381051643,0.43516369593303156,0.5434876828549202,0.11768145962624353,0.8129936011221927,0.31485059349849864,0.4600017950515673,0.33258091947050733,0.9580187970487689,0.8822403902565492,0.26022885558714337,0.4063512044734058,0.8085773840129611,0.32828311384919306,0.9141697010209385,0.9112890803944665,0.26343442576791276,0.7523440972067537,0.6071092465706011,0.46685312250989774,0.7495092302259522,0.8303864835581357,0.7682369972047858,0.8717374082163397,0.6974140939667344,0.3375281775280913,0.42145649703583044,0.7035675637528719,0.20453574831363958,0.11986274125678845,0.055662447540952203,0.41743345674758353,0.6558307327641278,0.130984750678581,0.8009403604961596,0.7259162797261205,0.7054437449092661,0.4554920756490458,0.5637935246117575,0.904195053291442,0.8483680787174294,0.25886857335446006,0.4982151713837103,0.41224662459589984,0,0.8051045582789822,0.1478524691630707,0.5189118628778325,0.2520341862953715,0.6713982825565314,0.3003529558293161,0.15143081216571858,0.6584687230563795,0.7449401949351475,0.4435129101451869,0.11708015096976689,0.8624655856235929,0.5747233541592496,0.25919043698579325,0.607960098763136,0.40056302807790195,0.768334742318523,0.8690472673338939,0.36838648572800087,0.5926394373179711,0.7101458680974542,0.48067346961597673,0.57988938647671,0.4382454858270103,0.5741356934929444,0.8432288079289371,0.8711762889114689,0.7528927158101355,0.7174811242861463,0.23264321333922275,0.28435809728390027,0.6148383147325264,0.35996494118269345,0.5805793833961207,0.6100503854613911,0.6847212821960584,0.2208577681014271,0.09362699666578932,0.5333308181478558,0.26820799162779463,0.6364745638654354,0.6474735373420065,0.780923515255512],[0.44550939821316493,0.19980555499897518,0.7876486569101425,0.3582760266159627,0.5115820172061681,0.7241718633216577,0.2012362875080459,0.7970358892351699,0.5368415930188315,0.7604390079613679,0.1435179738526909,0.11341160819244413,0.7091417968457449,0.44228201396317846,0.2801011764432064,0.7110637855802989,0.21246279712962476,0.31019357520204005,0.7847565577475619,0.3189401304843466,0.5198552439128173,0.41715100190270904,0.06660201827084532,0.06140266558430681,0.025228961321660172,0.1559750012051405,0.36793846687949855,0.739856270252081,0.5272493970819798,0.16807650893713721,0.6445403857268766,0.8052845492452375,0.7559261654992624,0.40583958705183354,0.6270294850438912,0.6632439706710362,0.2700841447333586,0.4456999358469675,0.18736265776541547,0.6191196163295835,0.2954629008355913,0.19954789626626265,0.17103626520785636,0.5409462598568304,0.7492033344036011,0.3839230218462355,0.8051045582789822,0,0.7473671641857591,0.3001259935424988,0.5670842673757287,0.22054726131529281,0.7230313245333385,0.7837097468560594,0.2695473035036827,0.4123365349341907,0.511488345564073,0.7641907713668781,0.20093554377790027,0.4661271090442364,0.6052826709881955,0.6502826470311628,0.6984424166926407,0.5208941004412528,0.24274851122435398,0.640052201335733,0.44553024213444953,0.3576609662904379,0.6192232016938777,0.281896694607364,0.4900029796174686,0.2475248820245289,0.32603308917673557,0.3432320017030796,0.5290173066783428,0.23947406164304838,0.6532293694337991,0.5507623783516319,0.4683897741486523,0.716838570569538,0.42480045864562543,0.18529305634735543,0.22445402174080606,0.5783039461036095,0.7009436918036719,0.29530328793362204,0.5779646437562423,0.5677166768253018,0.49933532565743943,0.3577604765773577],[0.29169428360666183,0.596320525939853,0.4912361837531301,0.38970356289850017,0.4030751380650304,0.038081285193753714,0.7173074664979433,0.44923430393276415,0.3195366696391387,0.17516964690323994,0.9025525582587902,0.806004116903167,0.37215047912894117,0.3064154493185,0.7001179230162609,0.16885493715372968,0.8219191657637185,0.9073275566999287,0.39803551529033193,0.6374819808834068,0.46417421408333315,0.35710025913409854,0.7037122064587833,0.785031715758108,0.710907426223634,0.8412471119904146,0.5754704352382343,0.178520480604565,0.28703629037623146,0.6188433054932116,0.09135276932387902,0.26884447677714024,0.08866149412312266,0.41528976600315953,0.7332369642535753,0.15993972162412357,0.6939324406029436,0.592583115288988,0.6162491462786854,0.539456292611909,0.47066158232213395,0.8133682525422237,0.8231724794336497,0.20509543026836777,0.610628194632707,0.3813300652874336,0.1478524691630707,0.7473671641857591,0,0.4992154266041559,0.2834784161363749,0.5787952423423502,0.41627388900968504,0.29169428360666183,0.6555981882865094,0.7735307634339629,0.4951004905533749,0.2505327788301246,0.8419188211066513,0.4405603556475948,0.13808933517334498,0.6930694813392834,0.2414179964714117,0.8172089311339361,0.7684865720427567,0.21479522453118902,0.631735502038934,0.7284865717305868,0.5642286