"trial_id","rt","stimulus","response","trial_type","trial_index","plugin_version","time_elapsed","participant_number","success","raw_payload","placements","dissimilarity_vector","n_words","trial_category","distance_matrix","value"
"consent_form","32162","
    <div style=""max-width:800px; margin:0 auto; text-align:left; font-size: 16px; padding: 10px 0;"">
      <h1>Informed Consent Form</h1>
      <p>You are being invited to participate in a research study titled <strong>""Reproducibility of Psychological Science and Instruction.""</strong> This study is being done by Dr. Bria Long from UC San Diego and associated graduate students in the Experimental Methods course. You were selected to participate in this study because you are an adult in the U.S. and have been a represented population in previous psychology studies.</p>
      
      <p>The purpose of this study is to better understand how well previously published studies in the psychological field replicate online and with different populations. Your participation in this research should last approximately <strong>5-30 minutes</strong>. If you agree to take part in this study, you may be asked to view a set of stimuli, including pictures, sounds, written text, or videos and then giving some responses via key-presses, verbally, or with paper-and-pencil. We may also observe your choices or preferences among an array of stimuli. These stimuli will be taken directly from or closely adapted from studies that already exist in the published psychological literature. Stimuli will include, e.g., pictures of objects and human faces, audio and video clips, short text passages, etc. None of the stimuli will be disturbing, threatening, or offensive. The online and in-person experiments described in this protocol will take no more than 30 minutes. An example game you might play would be to click on an image on the screen that matches a word you hear being said out loud. Your total expected time commitment for this study is between 5-30 minutes, and is specified in the study description.</p>
      
      <p>Your participation in this study is completely voluntary and you can withdraw at any time. Choosing not to participate or withdrawing will result in no penalty or loss of benefits to which you are entitled. You are free to skip any question that you choose.</p>
      
      <p>We will not be asking for any personally identifying information, and we will handle responses as confidentially as possible. Your SONA or Prolific IDs will never be tied to your responses on this survey. However, we cannot guarantee the confidentiality of information transmitted over the Internet. To minimize this risk, data containing anything that might be personally identifying (e.g. Prolific IDs or IP addresses) will be encrypted on transfer and storage and will only be accessible to qualified lab personnel. We will be keeping data collected as part of this experiment indefinitely. This anonymized data (containing neither Prolific IDs nor IP addresses) may be shared with the scientific community or with other participants to be used as stimuli in future studies.</p>
      
      <p>If you have questions about this project or if you have a research-related problem, you may contact the researcher(s), <strong>Dr. Bria Long, <a href=""mailto:brlong@ucsd.edu"">brlong@ucsd.edu</a></strong>. If you have any questions concerning your rights as a research subject, you may contact the UC San Diego Office of IRB Administration at <a href=""mailto:irb@ucsd.edu"">irb@ucsd.edu</a> or 858-246-4777.</p>
      
      <h3 style=""margin-top: 25px;"">Consent Statement</h3>
      <p style=""font-weight: bold;"">By participating in this research you are indicating that you are at least 18 years old, have read this consent form, and agree to participate in this research study. Please keep this consent form for your records.</p>
    </div>
  ","0","html-button-response","0","2.1.0","32163","ycajpqbz5n_f6bns9","","","","","","","",""
"","82380","","{""participant_date"":""11/25/2025"",""participant_time"":""2;56PM""}","survey-html-form","1","2.1.0","114545","ycajpqbz5n_f6bns9","","","","","","","",""
"","2460","
    <div style=""display:flex; align-items:center; justify-content:center; height:100vh; font-family:sans-serif;"">
      <div style=""max-width:900px; margin:0 auto; text-align:center;"">
        <h1 style= ""font-size: 24px;"">Welcome! Thank you for participating in the study.</h1>
        <h2 style= ""font-size: 22px;"">The study will be in Madarin Chinese.</h2>
        <h2 style= ""font-size: 22px;"">Please use desktop computers or laptops for the study. Tablets and phones are not allowed.</h2>
        <p style=""font-size:16px; margin-top:30px;""><em>Press any key to continue.</em></p>
      </div>
    </div>
  "," ","html-keyboard-response","2","2.1.0","117007","ycajpqbz5n_f6bns9","","","","","","","",""
"","711","
    <div style=""display:flex; align-items:center; justify-content:center; height:100vh; font-family:sans-serif;"">
      <div style=""max-width:900px; margin:0 auto; text-align:center;"">
        <p style=""font-size:18px; line-height:1.6;"">
          In this task, you will be presented with <strong>90 words</strong> arranged <strong>outside a circle</strong>.<br>
          Your job is to <strong>drag these words into the circle</strong> and <strong>rearrange them</strong> based on their <strong>meaning similarity</strong>.<br><br>
          Words that are <strong>similar in meaning</strong> should be placed <strong>closer together</strong>.<br>
          Words that are <strong>different in meaning</strong> should be placed <strong>farther apart</strong>.<br><br>
          You can place the words <strong>anywhere inside the circle</strong>. There is no single correct answer — 
          we are interested in <strong>your personal judgment</strong> of how these words relate to each other.<br><br>
          <strong>You must move all words into the circle before you can finish.</strong><br>
          After the initial arrangement, you will arrange words from specific categories.
        </p>
        <p style=""font-size:16px; margin-top:30px;""><em>Press any key to continue.</em></p>
      </div>
    </div>
  "," ","html-keyboard-response","3","2.1.0","117721","ycajpqbz5n_f6bns9","","","","","","","",""
"","1056","","","fullscreen","4","2.1.0","119781","ycajpqbz5n_f6bns9","true","{""placements"":[{""word"":""骄傲"",""x"":511,""y"":338.2,""cx"":530,""cy"":355.6,""angle_rad"":0.031,""angle_deg"":1.8},{""word"":""冰箱"",""x"":426,""y"":401.2,""cx"":445,""cy"":418.6,""angle_rad"":0.625,""angle_deg"":35.8},{""word"":""兔子"",""x"":368,""y"":402.2,""cx"":387,""cy"":419.6,""angle_rad"":1.082,""angle_deg"":62},{""word"":""反感"",""x"":389,""y"":411.2,""cx"":408,""cy"":428.6,""angle_rad"":0.935,""angle_deg"":53.6},{""word"":""协议"",""x"":458,""y"":411.2,""cx"":477,""cy"":428.6,""angle_rad"":0.554,""angle_deg"":31.8},{""word"":""嘴唇"",""x"":415,""y"":448.2,""cx"":434,""cy"":465.6,""angle_rad"":0.942,""angle_deg"":54},{""word"":""剪刀"",""x"":442,""y"":384.2,""cx"":461,""cy"":401.6,""angle_rad"":0.435,""angle_deg"":24.9},{""word"":""长颈鹿"",""x"":451,""y"":399.2,""cx"":477,""cy"":416.6,""angle_rad"":0.483,""angle_deg"":27.7},{""word"":""制度"",""x"":431,""y"":475.2,""cx"":450,""cy"":492.6,""angle_rad"":0.959,""angle_deg"":55},{""word"":""过失"",""x"":431,""y"":430.2,""cx"":450,""cy"":447.6,""angle_rad"":0.773,""angle_deg"":44.3},{""word"":""友情"",""x"":373,""y"":343.2,""cx"":392,""cy"":360.6,""angle_rad"":0.247,""angle_deg"":14.2},{""word"":""方法"",""x"":428,""y"":400.2,""cx"":447,""cy"":417.6,""angle_rad"":0.609,""angle_deg"":34.9},{""word"":""蚂蚁"",""x"":486,""y"":401.2,""cx"":505,""cy"":418.6,""angle_rad"":0.417,""angle_deg"":23.9},{""word"":""沮丧"",""x"":427,""y"":396.2,""cx"":446,""cy"":413.6,""angle_rad"":0.585,""angle_deg"":33.5},{""word"":""沙发"",""x"":451,""y"":394.2,""cx"":470,""cy"":411.6,""angle_rad"":0.474,""angle_deg"":27.2},{""word"":""暴力"",""x"":496,""y"":409.2,""cx"":515,""cy"":426.6,""angle_rad"":0.435,""angle_deg"":24.9},{""word"":""筷子"",""x"":449,""y"":403.2,""cx"":468,""cy"":420.6,""angle_rad"":0.539,""angle_deg"":30.9},{""word"":""概念"",""x"":442,""y"":457.2,""cx"":461,""cy"":474.6,""angle_rad"":0.843,""angle_deg"":48.3},{""word"":""麻雀"",""x"":424,""y"":294.2,""cx"":443,""cy"":311.6,""angle_rad"":-0.392,""angle_deg"":337.6},{""word"":""椅子"",""x"":404,""y"":394.2,""cx"":423,""cy"":411.6,""angle_rad"":0.701,""angle_deg"":40.2},{""word"":""买卖"",""x"":409,""y"":324.2,""cx"":428,""cy"":341.6,""angle_rad"":-0.107,""angle_deg"":353.9},{""word"":""魔力"",""x"":369,""y"":287.2,""cx"":388,""cy"":304.6,""angle_rad"":-0.874,""angle_deg"":309.9},{""word"":""结果"",""x"":341,""y"":454.2,""cx"":360,""cy"":471.6,""angle_rad"":1.489,""angle_deg"":85.3},{""word"":""敌意"",""x"":306,""y"":448.2,""cx"":325,""cy"":465.6,""angle_rad"":1.784,""angle_deg"":102.2},{""word"":""纠纷"",""x"":293,""y"":361.2,""cx"":312,""cy"":378.6,""angle_rad"":2.496,""angle_deg"":143},{""word"":""关系"",""x"":330,""y"":473.2,""cx"":349,""cy"":490.6,""angle_rad"":1.578,""angle_deg"":90.4},{""word"":""铅笔"",""x"":280,""y"":482.2,""cx"":299,""cy"":499.6,""angle_rad"":1.899,""angle_deg"":108.8},{""word"":""愤怒"",""x"":362,""y"":415.2,""cx"":381,""cy"":432.6,""angle_rad"":1.212,""angle_deg"":69.4},{""word"":""团队"",""x"":248,""y"":391.2,""cx"":267,""cy"":408.6,""angle_rad"":2.527,""angle_deg"":144.8},{""word"":""洗衣机"",""x"":232,""y"":373.2,""cx"":258,""cy"":390.6,""angle_rad"":2.726,""angle_deg"":156.2},{""word"":""大腿"",""x"":268,""y"":476.2,""cx"":287,""cy"":493.6,""angle_rad"":1.984,""angle_deg"":113.7},{""word"":""慈善"",""x"":247,""y"":439.2,""cx"":266,""cy"":456.6,""angle_rad"":2.238,""angle_deg"":128.2},{""word"":""手指"",""x"":251,""y"":477.2,""cx"":270,""cy"":494.6,""angle_rad"":2.076,""angle_deg"":119},{""word"":""性质"",""x"":229,""y"":429.2,""cx"":248,""cy"":446.6,""angle_rad"":2.383,""angle_deg"":136.6},{""word"":""猫"",""x"":145,""y"":475.2,""cx"":157,""cy"":492.6,""angle_rad"":2.505,""angle_deg"":143.5},{""word"":""眼睛"",""x"":206,""y"":475.2,""cx"":225,""cy"":492.6,""angle_rad"":2.29,""angle_deg"":131.2},{""word"":""床"",""x"":229,""y"":443.2,""cx"":241,""cy"":460.6,""angle_rad"":2.349,""angle_deg"":134.6},{""word"":""鼠标"",""x"":153,""y"":471.2,""cx"":172,""cy"":488.6,""angle_rad"":2.48,""angle_deg"":142.1},{""word"":""微波炉"",""x"":376,""y"":401.2,""cx"":402,""cy"":418.6,""angle_rad"":0.922,""angle_deg"":52.8},{""word"":""原因"",""x"":173,""y"":426.2,""cx"":192,""cy"":443.6,""angle_rad"":2.607,""angle_deg"":149.4},{""word"":""锤子"",""x"":205,""y"":459.2,""cx"":224,""cy"":476.6,""angle_rad"":2.354,""angle_deg"":134.9},{""word"":""勺子"",""x"":246,""y"":426.2,""cx"":265,""cy"":443.6,""angle_rad"":2.308,""angle_deg"":132.2},{""word"":""缘分"",""x"":300,""y"":377.2,""cx"":319,""cy"":394.6,""angle_rad"":2.178,""angle_deg"":124.8},{""word"":""胳膊"",""x"":282,""y"":370.2,""cx"":301,""cy"":387.6,""angle_rad"":2.487,""angle_deg"":142.5},{""word"":""老鼠"",""x"":140,""y"":351.2,""cx"":159,""cy"":368.6,""angle_rad"":3.045,""angle_deg"":174.4},{""word"":""兴奋"",""x"":310,""y"":267.2,""cx"":329,""cy"":284.6,""angle_rad"":-1.881,""angle_deg"":252.2},{""word"":""耳朵"",""x"":343,""y"":293.2,""cx"":362,""cy"":310.6,""angle_rad"":-1.275,""angle_deg"":287},{""word"":""社会"",""x"":304,""y"":321.2,""cx"":323,""cy"":338.6,""angle_rad"":-2.742,""angle_deg"":202.9},{""word"":""牙刷"",""x"":185,""y"":237.2,""cx"":204,""cy"":254.6,""angle_rad"":-2.563,""angle_deg"":213.2},{""word"":""过程"",""x"":238,""y"":314.2,""cx"":257,""cy"":331.6,""angle_rad"":-2.946,""angle_deg"":191.2},{""word"":""光彩"",""x"":249,""y"":332.2,""cx"":268,""cy"":349.6,""angle_rad"":-3.137,""angle_deg"":180.3},{""word"":""空调"",""x"":271,""y"":355.2,""cx"":290,""cy"":372.6,""angle_rad"":2.781,""angle_deg"":159.4},{""word"":""乌龟"",""x"":274,""y"":304.2,""cx"":293,""cy"":321.6,""angle_rad"":-2.679,""angle_deg"":206.5},{""word"":""地位"",""x"":272,""y"":257.2,""cx"":291,""cy"":274.6,""angle_rad"":-2.235,""angle_deg"":232},{""word"":""创伤"",""x"":380,""y"":376.2,""cx"":399,""cy"":393.6,""angle_rad"":0.727,""angle_deg"":41.7},{""word"":""死亡"",""x"":300,""y"":281.2,""cx"":319,""cy"":298.6,""angle_rad"":-2.113,""angle_deg"":238.9},{""word"":""快乐"",""x"":213,""y"":286.2,""cx"":232,""cy"":303.6,""angle_rad"":-2.767,""angle_deg"":201.5},{""word"":""身份"",""x"":128,""y"":138.2,""cx"":147,""cy"":155.6,""angle_rad"":-2.378,""angle_deg"":223.8},{""word"":""婚姻"",""x"":126,""y"":140.2,""cx"":145,""cy"":157.6,""angle_rad"":-2.388,""angle_deg"":223.2},{""word"":""错误"",""x"":170,""y"":182.2,""cx"":189,""cy"":199.6,""angle_rad"":-2.39,""angle_deg"":223.1},{""word"":""脚踝"",""x"":181,""y"":128.2,""cx"":200,""cy"":145.6,""angle_rad"":-2.204,""angle_deg"":233.7},{""word"":""老虎"",""x"":219,""y"":217.2,""cx"":238,""cy"":234.6,""angle_rad"":-2.341,""angle_deg"":225.9},{""word"":""冷漠"",""x"":226,""y"":268.2,""cx"":245,""cy"":285.6,""angle_rad"":-2.591,""angle_deg"":211.5},{""word"":""疾病"",""x"":262,""y"":362.2,""cx"":281,""cy"":379.6,""angle_rad"":2.736,""angle_deg"":156.8},{""word"":""扫帚"",""x"":217,""y"":233.2,""cx"":236,""cy"":250.6,""angle_rad"":-2.424,""angle_deg"":221.1},{""word"":""难过"",""x"":249,""y"":305.2,""cx"":268,""cy"":322.6,""angle_rad"":-2.819,""angle_deg"":198.5},{""word"":""钥匙"",""x"":288,""y"":321.2,""cx"":307,""cy"":338.6,""angle_rad"":-2.882,""angle_deg"":194.8},{""word"":""天堂"",""x"":312,""y"":253.2,""cx"":331,""cy"":270.6,""angle_rad"":-1.806,""angle_deg"":256.5},{""word"":""义务"",""x"":350,""y"":270.2,""cx"":369,""cy"":287.6,""angle_rad"":-1.275,""angle_deg"":286.9},{""word"":""数据"",""x"":322,""y"":278.2,""cx"":341,""cy"":295.6,""angle_rad"":-1.735,""angle_deg"":260.6},{""word"":""爱心"",""x"":428,""y"":307.2,""cx"":447,""cy"":324.6,""angle_rad"":-0.256,""angle_deg"":345.3},{""word"":""内容"",""x"":422,""y"":367.2,""cx"":441,""cy"":384.6,""angle_rad"":0.363,""angle_deg"":20.8},{""word"":""现象"",""x"":451,""y"":368.2,""cx"":470,""cy"":385.6,""angle_rad"":0.288,""angle_deg"":16.5},{""word"":""柜子"",""x"":429,""y"":345.2,""cx"":448,""cy"":362.6,""angle_rad"":0.128,""angle_deg"":7.3},{""word"":""奇迹"",""x"":470,""y"":338.2,""cx"":489,""cy"":355.6,""angle_rad"":0.04,""angle_deg"":2.3},{""word"":""恐惧"",""x"":447,""y"":315.2,""cx"":466,""cy"":332.6,""angle_rad"":-0.149,""angle_deg"":351.5},{""word"":""膝盖"",""x"":467,""y"":338.2,""cx"":486,""cy"":355.6,""angle_rad"":0.041,""angle_deg"":2.4},{""word"":""舒心"",""x"":433,""y"":342.2,""cx"":452,""cy"":359.6,""angle_rad"":0.094,""angle_deg"":5.4},{""word"":""债务"",""x"":432,""y"":314.2,""cx"":451,""cy"":331.6,""angle_rad"":-0.18,""angle_deg"":349.7},{""word"":""大象"",""x"":466,""y"":335.2,""cx"":485,""cy"":352.6,""angle_rad"":0.019,""angle_deg"":1.1},{""word"":""作用"",""x"":481,""y"":368.2,""cx"":500,""cy"":385.6,""angle_rad"":0.233,""angle_deg"":13.4},{""word"":""纪律"",""x"":436,""y"":234.2,""cx"":455,""cy"":251.6,""angle_rad"":-0.753,""angle_deg"":316.9},{""word"":""电视"",""x"":477,""y"":408.2,""cx"":496,""cy"":425.6,""angle_rad"":0.478,""angle_deg"":27.4},{""word"":""肩膀"",""x"":475,""y"":267.2,""cx"":494,""cy"":284.6,""angle_rad"":-0.426,""angle_deg"":335.6},{""word"":""鼻子"",""x"":476,""y"":260.2,""cx"":495,""cy"":277.6,""angle_rad"":-0.463,""angle_deg"":333.5},{""word"":""斧头"",""x"":461,""y"":376.2,""cx"":480,""cy"":393.6,""angle_rad"":0.324,""angle_deg"":18.5},{""word"":""风景"",""x"":529,""y"":278.2,""cx"":548,""cy"":295.6,""angle_rad"":-0.268,""angle_deg"":344.6},{""word"":""熊猫"",""x"":415,""y"":334.2,""cx"":434,""cy"":351.6,""angle_rad"":0.019,""angle_deg"":1.1},{""word"":""骗局"",""x"":384,""y"":341.2,""cx"":403,""cy"":358.6,""angle_rad"":0.161,""angle_deg"":9.2},{""word"":""桌子"",""x"":459,""y"":364.2,""cx"":478,""cy"":381.6,""angle_rad"":0.242,""angle_deg"":13.9}],""n_words"":90,""words"":[""骄傲"",""冰箱"",""兔子"",""反感"",""协议"",""嘴唇"",""剪刀"",""长颈鹿"",""制度"",""过失"",""友情"",""方法"",""蚂蚁"",""沮丧"",""沙发"",""暴力"",""筷子"",""概念"",""麻雀"",""椅子"",""买卖"",""魔力"",""结果"",""敌意"",""纠纷"",""关系"",""铅笔"",""愤怒"",""团队"",""洗衣机"",""大腿"",""慈善"",""手指"",""性质"",""猫"",""眼睛"",""床"",""鼠标"",""微波炉"",""原因"",""锤子"",""勺子"",""缘分"",""胳膊"",""老鼠"",""兴奋"",""耳朵"",""社会"",""牙刷"",""过程"",""光彩"",""空调"",""乌龟"",""地位"",""创伤"",""死亡"",""快乐"",""身份"",""婚姻"",""错误"",""脚踝"",""老虎"",""冷漠"",""疾病"",""扫帚"",""难过"",""钥匙"",""天堂"",""义务"",""数据"",""爱心"",""内容"",""现象"",""柜子"",""奇迹"",""恐惧"",""膝盖"",""舒心"",""债务"",""大象"",""作用"",""纪律"",""电视"",""肩膀"",""鼻子"",""斧头"",""风景"",""熊猫"",""骗局"",""桌子""],""distance_matrix"":[[0,0.2275095341611107,0.3392518910086104,0.3074075408025699,0.19326010219498324,0.3158158179628447,0.17726064448371273,0.17260511605700465,0.3435992221979888,0.2629132938838656,0.29844060162417585,0.22267333413539164,0.1439826462438458,0.21933031257187804,0.1753834167891365,0.15450111098817712,0.19241818826221474,0.29726908967428317,0.20925855090279624,0.26038782083589995,0.22125885442444834,0.3265376817691208,0.4471950618619345,0.506160824744199,0.4766409870254555,0.49111955149291237,0.5930645612321994,0.36352960107970395,0.5844521775033745,0.5975348760221736,0.6089770750835648,0.616027215226303,0.642746713246312,0.6460317771730018,0.868003471284418,0.7295902201643429,0.6705570256073254,0.8340485836118142,0.30848727418086536,0.7623477635977294,0.7179443011951918,0.6084894993606894,0.4664568898235273,0.5030352566663346,0.8105885128292815,0.4633754765363205,0.3771548086412803,0.45134950113090094,0.7448163867277707,0.5971181960875679,0.5707916578270402,0.5236328691207899,0.5210518173510265,0.5494483870466393,0.2947271797869703,0.4752208803617902,0.6596161601509735,0.9442563446635912,0.9461356466298636,0.81885195885111,0.8543578840575069,0.6894364543422893,0.6397743466503213,0.5446177522922327,0.6808908595738534,0.5751882077639494,0.48638825684623527,0.470453169031075,0.3790196057040061,0.4306962473347735,0.18972190549202692,0.20071744698612662,0.14245147023036897,0.17587790901527325,0.08515531487568108,0.14448416749260465,0.09174561496388575,0.1666608440969777,0.17646419897269383,0.09416181478528184,0.0882887979853604,0.276762716590762,0.1660409364694856,0.16996209993983363,0.18289537392811542,0.13304762725049837,0.13269738614999793,0.20616046766485496,0.27415507807214584,0.1228029915779043],[0.2275095341611107,0,0.12251928494560622,0.07928453451034949,0.0687369205387552,0.10112597031640017,0.046371915228263096,0.06552157871081017,0.15801926874061267,0.05973406252951298,0.16768441598971834,0,0.12689388210097735,0.006289236586946459,0.05211926082190574,0.14986252736850258,0.045804177793783735,0.12302950392479084,0.23018297429011791,0.045804177793783735,0.16831237166424529,0.27507870113450567,0.2151376833877421,0.2781981858305154,0.30018548107169046,0.25869988386507087,0.3618689843389041,0.1390054420573658,0.3867289354070616,0.41046271393044,0.3792960325613276,0.3970721766212308,0.41421001093972015,0.43220029450969105,0.6483074559292856,0.5049838837629168,0.4526275030117802,0.6142059552949484,0.08954884826781753,0.5535766606077479,0.49701421894107584,0.3943014996654616,0.27685692938545403,0.31866945219498877,0.6328921458161899,0.3844303059719216,0.2943081487199881,0.3155749859877348,0.6354632701755654,0.45015805649465923,0.4124157389359572,0.35026504369780115,0.3911948261128218,0.4582463269579745,0.11009863512256593,0.377325285452755,0.5268415665770756,0.8682107598407108,0.8686196649519393,0.735163550267051,0.800897119029204,0.6034970809165557,0.522719047332531,0.36540436871958626,0.5841532354110164,0.4374241878144867,0.34549799146809884,0.4054777665447585,0.3277874530795994,0.34893101468512105,0.2016306841957398,0.0702930580221382,0.08603508278786648,0.11828321474051262,0.16389621552687486,0.18956067678197142,0.16021110441754718,0.12560614429580036,0.18666054719841452,0.16462362585794216,0.13598953055557658,0.36260504463215826,0.10817336738066609,0.3085180690511219,0.32373034540395146,0.08957438861381108,0.34751663406531486,0.14424170649350737,0.15597760943897404,0.1039996651348302],[0.3392518910086104,0.12251928494560622,0,0.045278110508205544,0.19378296891384092,0.13955765378734733,0.1623886475746229,0.19290669082411757,0.20691360790519173,0.14653738002996558,0.12516169942759284,0.126967087328373,0.25431565863927086,0.1253655915384896,0.1782645043220001,0.2766941783973381,0.17303954248999628,0.1976316757936449,0.2623360832699002,0.0761006332036895,0.18866528634066246,0.24772560136373348,0.12380041347528813,0.16468054570024457,0.18285682691024466,0.17199239893787938,0.2563461581414436,0.026540792808953467,0.25980510353570857,0.28554330623937696,0.26837130811615467,0.27304615150441297,0.3003831318100427,0.3061457005808665,0.5251827508085231,0.38542680436317744,0.3282223167708898,0.49111955149291237,0.028112525153016498,0.42668964699031275,0.3744231210353318,0.2682300033353636,0.15424358956559547,0.1966644181103979,0.5083279948125177,0.31786311015344026,0.24075280185689463,0.22186614032444124,0.5363758302618531,0.33994526948408893,0.2983769623050118,0.23187039140384896,0.2933955326501309,0.37710428238347293,0.05799370528102311,0.2999956158244056,0.42038213963433996,0.7788627137505633,0.7785917542953659,0.645286291793635,0.7238219821471797,0.5169113019059765,0.42399216209950014,0.24397291877436816,0.4929452028125279,0.3323470194608188,0.24518183337783075,0.3447604230162831,0.2877446980570739,0.2856263670737845,0.24191883858878274,0.1364511400619928,0.19212450538892586,0.1784882999143017,0.2596136197193499,0.2532430195325654,0.25405490351535104,0.1894117315496699,0.23412193978603715,0.2558747142484904,0.25431565863927086,0.3932302544998479,0.2348979446343333,0.3735060510841512,0.386999924689731,0.2072209400555443,0.4415074121883366,0.17667692599919835,0.1336235892271482,0.21172293888554666],[0.3074075408025699,0.07928453451034949,0.045278110508205544,0,0.14666478236559138,0.09442935259380163,0.12575395664663241,0.14893998501102165,0.1632517699010629,0.09635382142039091,0.14854740436435496,0.08410437988409869,0.2093036110065067,0.08483326103916326,0.13631452417144138,0.23018297429011791,0.12806032963267333,0.14925332974433358,0.26336337556046835,0.044892026081135045,0.19119160807863397,0.2710073741641129,0.13665581670353458,0.19471584327346825,0.23286694663801769,0.18310082455001975,0.2808533706304183,0.055047942195850484,0.30793244816530935,0.33501223972814415,0.2968216029753448,0.3130352368164793,0.33112856783876277,0.3487877845821757,0.5641183043705171,0.42097177122586205,0.3686222032456436,0.5300174861166859,0.020706362194827965,0.47073225990080153,0.4128202664850911,0.3109490154882624,0.20438107328447125,0.2468070548739315,0.5577389718102165,0.3558997048766039,0.2733064527362661,0.2670348209840031,0.5840999832326507,0.38934477623739266,0.34822111609645007,0.2820162226512043,0.3401551091009835,0.4199507375198615,0.07447600158649262,0.34118148415343486,0.4693097232690678,0.8247854612382388,0.8246691267479164,0.6911614086584733,0.7666284972249965,0.561734470989722,0.47142673893165243,0.2941226207620843,0.5388397805854888,0.380844115365184,0.29226909014696656,0.3812004837914662,0.31646215962920726,0.3222365250081051,0.2390872577612284,0.11591004862063622,0.16083825843365324,0.16462362585794216,0.2346261252427633,0.24147854914414144,0.22977207631991503,0.17486072281272705,0.2281730049953953,0.23275529658899125,0.2181760008981361,0.39739018086078126,0.18851565163187728,0.3635426986684727,0.377918205099576,0.17095274073759445,0.4192914358138701,0.1736216384093686,0.14925332974433358,0.18030801386893155],[0.19326010219498324,0.0687369205387552,0.19378296891384092,0.14666478236559138,0,0.119704783864293,0.06403276526825628,0.021449080689702534,0.14768017175196646,0.06761445801348741,0.2342127716217393,0.06528136564150844,0.06040244978802378,0.07074090225609103,0.035474944651223674,0.07868055412920921,0.021540454275130433,0.1020774099695357,0.26274206440130243,0.11945281693011815,0.21443478743164193,0.3303881754654284,0.2689181754133036,0.33874673705329034,0.37383110064778613,0.30752340500102276,0.41607115120421206,0.20616046766485496,0.4584963225393059,0.4833683882594686,0.43622248162224037,0.4626690394500627,0.4723730464586034,0.49969910531915124,0.7119746803408922,0.5662472213146225,0.518268980692831,0.6779431878330834,0.16130344195662075,0.6220329337793243,0.5607840964149164,0.46196670160094383,0.3501223517771254,0.3920710353648816,0.7059854783910227,0.44870823505979546,0.3570481095905933,0.38692603710804946,0.7062603512723223,0.5232675301296632,0.4859165517714312,0.42390776811676684,0.4626690394500627,0.5255604166339585,0.18289537392811542,0.4445615924707343,0.5992985665363324,0.9359325636417577,0.9365376151116351,0.8033816113511024,0.8650130393528602,0.671310333837844,0.5937743165152577,0.43890543535057647,0.6532569264834049,0.509886457809074,0.41764439126449543,0.46767361824764064,0.38525368311863695,0.41296464570557334,0.23286694663801769,0.11997556435575321,0.09079231009005488,0.1534532774929942,0.15760408069085477,0.20735738929331457,0.15666600692190116,0.15630720975093695,0.21569620022189226,0.16296455553333367,0.10221264010099167,0.3869075630355377,0.037343531429644986,0.31361905126677647,0.3291481340031543,0.07225663925862535,0.32628279037080316,0.18882726019052162,0.21885636319879173,0.09835928226631181],[0.3158158179628447,0.10112597031640017,0.13955765378734733,0.09442935259380163,0.119704783864293,0,0.14768017175196646,0.13829954762365435,0.06403276526825628,0.04799302821337704,0.2435168450610705,0.10433147798282595,0.18213582445261095,0.11232197348169576,0.1376578696691847,0.19257708413503155,0.11898630098796513,0.05760895656508987,0.3339671801941728,0.11614945870009054,0.26780564970313336,0.36292004815211654,0.15818208915575405,0.2345354502083204,0.3242585447153784,0.18972190549202692,0.3009122058809701,0.13224073560533484,0.3827285123739929,0.41535983650866065,0.32381843756021567,0.36467388354777014,0.3609468265232073,0.40581276196079846,0.606476112673312,0.45802747008045896,0.41920610644908746,0.5728542266114779,0.1199948833571866,0.5288976673662429,0.4570413310130804,0.3694739028697017,0.29198477999582434,0.3337962520340704,0.6356780063880973,0.4547636079838524,0.37052938367705024,0.36561932628628724,0.6807501113031411,0.48277503451167125,0.4399643238604067,0.37165880380244853,0.43781676504505507,0.5192365981567599,0.17095274073759445,0.44051720128653526,0.5639104889451966,0.9231249646578468,0.9229065393570233,0.7895190267827086,0.8659500377722052,0.6605921782541354,0.5684439880106907,0.38065016267500823,0.6371641174314415,0.47640041594488264,0.38963843171543466,0.4795434252707461,0.41136792390601695,0.4207677604084286,0.3061457005808665,0.1736892008557123,0.18780330012700308,0.22343541201325962,0.2652544618082733,0.29559560808771834,0.2623721954520707,0.2312786127545511,0.2918140631466166,0.26743379788218274,0.2229170527682533,0.46745402113046947,0.15717294332511952,0.4139796670842284,0.429275914160742,0.18277970912484118,0.44473334399100095,0.24551928368866152,0.23980808467115092,0.20339882335537943],[0.17726064448371273,0.046371915228263096,0.1623886475746229,0.12575395664663241,0.06403276526825628,0.14768017175196646,0,0.04326673528441364,0.19644884097784762,0.0989882105684439,0.17140492430320303,0.04179178092841298,0.09870915814807366,0.037286390563623026,0.024642353584917967,0.12580934318800063,0.039569015731018585,0.1554518491498643,0.1967122928380112,0.08140711555000278,0.14551427691208496,0.2617757191448721,0.26504002967066853,0.325275872625877,0.32628279037080316,0.3093483898834605,0.411014198156501,0.1835622696121966,0.42153795585620013,0.4416857411554616,0.42746603536187766,0.440170378072958,0.46176510087818784,0.47332757229076367,0.6921832562256987,0.5507309111174368,0.49545424151189,0.6580966713761777,0.1299700710327592,0.5931775331852279,0.541168910372067,0.43542865494585875,0.3074075408025699,0.3479135057125904,0.6624603962884191,0.3825728671534127,0.29048562031871134,0.3283381845841179,0.645486655391387,0.4688770366934385,0.4341830235963868,0.3760986830575225,0.40385180039421087,0.46124260142908136,0.13241655013113404,0.3804498510558963,0.5422768450715926,0.8713527550148921,0.8721234269889068,0.7393607363912841,0.7982066766481074,0.6071072395618801,0.5336856178144649,0.39344836824341806,0.5903508557404458,0.45320723437942095,0.3606037182165652,0.4005148478604903,0.3168973314999031,0.34681760113830506,0.16701206854594983,0.052750390850922806,0.03541515621827295,0.08539610155540366,0.1133873873484013,0.14706222628561386,0.11009863512256593,0.08944661775309273,0.1504227430843448,0.11494762637688495,0.0876914332947923,0.324866391390116,0.0883146835344357,0.26213737897852835,0.27754116800599893,0.040375385950525935,0.2963334057116676,0.11991758941227222,0.15369686986485429,0.052750390850922806],[0.17260511605700465,0.06552157871081017,0.19290669082411757,0.14893998501102165,0.021449080689702534,0.13829954762365435,0.04326673528441364,0,0.17226497925147005,0.08539610155540366,0.2186945599409727,0.061027483832628404,0.05675406009986372,0.06350579026875672,0.013985181992269273,0.08140711555000278,0.01672352315018122,0.12725950278049053,0.23753967738615886,0.1142207074659468,0.19189169563901887,0.3093483898834605,0.2790916697270566,0.34591778043367527,0.3670427151154746,0.3198826408005119,0.4265330831479548,0.20888644268329692,0.4567435105509849,0.4795583669187976,0.4454464843911207,0.46686110979554946,0.4810303506029996,0.5024458800907758,0.7176070849262641,0.5733009118111047,0.5224583181715449,0.683517551908487,0.15990395257662907,0.6239696618587288,0.5662852410112634,0.4645642150323221,0.3455255340196156,0.38693219493866743,0.7015729679097007,0.4307350195286692,0.33866247251829673,0.3743086085747325,0.6924462693043191,0.5131942693928329,0.477226876145871,0.4171015714124295,0.44998835312508195,0.509150062657689,0.17372972605848444,0.428291163983865,0.5877835142425052,0.9193525041125663,0.9200936194518468,0.7872439003691408,0.8463739490641116,0.6550142925871889,0.5803726583253564,0.4332588665238232,0.6379452963291341,0.49851185073032844,0.40597134867156437,0.4486656795594698,0.36467388354777014,0.3949778672784444,0.20766407984746404,0.10089817608987026,0.06490221809156035,0.12973731470627908,0.13165894183612373,0.18119175233309595,0.13054130573565711,0.13181785837491966,0.1903531325653783,0.13677507486952586,0.0798842130185642,0.36076211590030505,0.041272255306064605,0.28745598824370594,0.30298806716464666,0.04604150383238731,0.30327788512856846,0.16629480634042398,0.2016306841957398,0.07200609067868928],[0.3435992221979888,0.15801926874061267,0.20691360790519173,0.1632517699010629,0.14768017175196646,0.06403276526825628,0.19644884097784762,0.17226497925147005,0,0.09394238165995397,0.3118186746491045,0.15997713586349993,0.1976316757936449,0.168854764317648,0.17836985393472657,0.198582479261245,0.15812290054599543,0.04142872455712604,0.3929998936203198,0.18265110902150197,0.3303018098002724,0.4299589188501575,0.19810763414106036,0.27601646588465967,0.3883029826653961,0.21700481270690544,0.32715588918809857,0.19595694049712015,0.4374241878144867,0.47269143370160244,0.35316759028074707,0.4069567384079752,0.3905302933947067,0.4501951706714679,0.6387405222848739,0.4893603869522345,0.4595624975200526,0.6058522348800934,0.18885216722666665,0.5719849143323514,0.4927997849816379,0.4155033435900517,0.354479180366931,0.3955145233374844,0.6899644602981869,0.5237059066198045,0.4391826192362506,0.43358914620854844,0.7470113097566553,0.5472153747021039,0.5035480280210497,0.4344412195505289,0.5050501292187773,0.5878282940711532,0.23972919356518915,0.5093237029876946,0.6289036123654269,0.9906328814776071,0.9903226008701421,0.8570774102579181,0.9345980242237031,0.7286500883409244,0.6350750553393184,0.4416857411554616,0.7047489329340885,0.5421842353468458,0.4567487371271209,0.5484158668070954,0.4793042961977586,0.48967759590972504,0.36420352255132127,0.2331610457811033,0.2342127716217393,0.28070134523691087,0.3080018552165733,0.3483235933625853,0.3062620346198065,0.2872908831323309,0.3487741405948909,0.31210041963237856,0.25453895444835944,0.5246225820123818,0.1736216384093686,0.4621268862521753,0.47762707459270276,0.22233381252342524,0.4784414535847895,0.3068198336809594,0.3070364861766721,0.24656729943850497],[0.2629132938838656,0.05973406252951298,0.14653738002996558,0.09635382142039091,0.06761445801348741,0.04799302821337704,0.0989882105684439,0.08539610155540366,0.09394238165995397,0,0.22478397426114635,0.06131957652920285,0.13167660835990233,0.0702930580221382,0.08555626997190964,0.14514489535620817,0.06637287500303427,0.05913408498174417,0.29424363030656314,0.09394238165995397,0.23290753365995723,0.3374805915539537,0.19970582007701831,0.2725161191510093,0.33402413709189965,0.23623243490799956,0.34591778043367527,0.15020512183483972,0.406124003971507,0.4350613684708805,0.3671464935389437,0.39977619100286427,0.40376324732378516,0.4388401904506776,0.6462874932962747,0.4991489115897022,0.4550994288424133,0.6123949570841967,0.11828321474051262,0.5619218006264436,0.49562781242674925,0.40158470332623913,0.3055245160962308,0.347947697886776,0.6574849857784291,0.4410369303613179,0.3527832940483471,0.36274289188153247,0.6819596039076372,0.48975076908959614,0.449176082345736,0.3832696712633832,0.43731507673550124,0.5112579395761411,0.1582560447251554,0.4309232925502138,0.5690286526917625,0.919488245723487,0.9196239674046451,0.7860001638647275,0.8563324978362187,0.6552628744800371,0.5690664881495507,0.3952673891627797,0.6340600614949811,0.4801158590841054,0.3900785055865715,0.46362273537144844,0.3890447771583177,0.4059772210779809,0.2653705415174659,0.1348892568095987,0.1381984213307426,0.1818647309786701,0.2145997306110564,0.25014942778075805,0.21211242049185336,0.18845326966124953,0.2499222857268484,0.21749355730755762,0.17005865838041712,0.42579422989728705,0.10710144283751015,0.36597731204502537,0.38140040619104004,0.13079046478942255,0.3923808960768387,0.20888644268329692,0.21618783754798138,0.15258241780769952],[0.29844060162417585,0.16768441598971834,0.12516169942759284,0.14854740436435496,0.2342127716217393,0.2435168450610705,0.17140492430320303,0.2186945599409727,0.3118186746491045,0.22478397426114635,0,0.16909066277145463,0.2741118433440547,0.16130344195662075,0.1998119222048332,0.3017316469812729,0.2078002448232142,0.2878188916994676,0.15045380695081823,0.12619639383693063,0.08451004733362809,0.11842023986284361,0.2488596013220202,0.26870661450476246,0.17522274941447832,0.2958845270252737,0.36248028112549235,0.15509032931640307,0.2892332183027903,0.2967416247825548,0.3673345181879619,0.3430657101539894,0.39318176855018705,0.3635426986684727,0.5871929181323986,0.4627103205907274,0.3929453149287546,0.5542243442488529,0.12438024472214214,0.4707728412953735,0.4435727448068722,0.32837438501485433,0.17199239893787938,0.20360721539183768,0.5072361335197179,0.21194558545874861,0.12318028962660452,0.15418293571079036,0.4692028609605095,0.2984167384441444,0.26855665983656274,0.22070341339264696,0.2288345926298248,0.2864970764626212,0.06919416952676452,0.20548492373394228,0.36820855816139214,0.6968508379837003,0.6974282397234535,0.5642582189396224,0.6283094528340889,0.43219477440292675,0.35761429205655293,0.24247541364205477,0.41441145801664464,0.2799908207976218,0.1879659978510339,0.2339300702496361,0.16322307054262125,0.17658388860464563,0.13949083150188055,0.11494762637688495,0.17502171345019185,0.1181852462682357,0.2084571505529785,0.16889641672142167,0.20187586666136517,0.12691218721901076,0.13950753997184276,0.20014166661849486,0.23861212667686113,0.2716537406373355,0.2645032026459773,0.2745179856876207,0.28567619217834445,0.20154889200363693,0.3663414519724139,0.08944661775309273,0.019648478652464687,0.18956067678197142],[0.22267333413539164,0,0.126967087328373,0.08410437988409869,0.06528136564150844,0.10433147798282595,0.04179178092841298,0.061027483832628404,0.15997713586349993,0.06131957652920285,0.16909066277145463,0,0.12251928494560622,0.004145381459612249,0.04730442860540974,0.14577070394087313,0.041688339161122114,0.12402517359957131,0.22811088485268718,0.049432887073254356,0.16718040166872383,0.2751217865884496,0.2200286378026397,0.2830906129013754,0.30377854949321526,0.2635342087377052,0.36677665064690224,0.14377182743127798,0.39099984960101114,0.4144920097550284,0.3842071373499037,0.4018279991363875,0.4191150695333916,0.4368619777775035,0.6531102674550906,0.5098489599612616,0.4573754972620296,0.6190082962915568,0.09396678716614561,0.5581676518860206,0.5018224876227384,0.3989585234802823,0.28077736804592013,0.3225166748847386,0.636848371791821,0.38567398731802416,0.2952822987813453,0.3180723550919493,0.6378739780410976,0.4532388349925008,0.41572711687472386,0.3538677016769984,0.39373900093376085,0.4599779025150411,0.11297875225167196,0.3790196057040061,0.5296790786800316,0.8700631163986429,0.870504232222113,0.7370879042705127,0.8022105775158442,0.6053384394282946,0.5251781989774217,0.36918376856833807,0.5862181649837424,0.4402571092079433,0.34822111609645007,0.4064467419747605,0.3281281444901576,0.3501223517771254,0.1993871830712288,0.0687696752836264,0.08165832808338883,0.11593001757677353,0.15959622725667047,0.18642108914815342,0.1559926059183935,0.1229729134508445,0.18421405618905615,0.16048851221359434,0.13109240141499587,0.3601743793837309,0.10415463675373553,0.3049643853829437,0.32020935135498113,0.08472565263031631,0.3430171684929742,0.14286024657705454,0.156770506113875,0.09945163985409519],[0.1439826462438458,0.12689388210097735,0.25431565863927086,0.2093036110065067,0.06040244978802378,0.18213582445261095,0.09870915814807366,0.05675406009986372,0.1976316757936449,0.13167660835990233,0.2741118433440547,0.12251928494560622,0,0.12516169942759284,0.07349737408732226,0.023220220488043296,0.07648690562575652,0.15153715654739644,0.2667507475859528,0.17587790901527325,0.23430356896797372,0.3539416720458903,0.33423052565990086,0.40376324732378516,0.42807388402495417,0.3725228300017195,0.48134803146899124,0.26921760720869825,0.5183796561022463,0.5411644917938934,0.5015319437853708,0.5267099595401846,0.537653677930265,0.5629977468842265,0.7766553618815688,0.6313012500631701,0.5823276258459639,0.7425988795604708,0.22135485003191105,0.6848656267945473,0.6253915063484117,0.525164543249595,0.4070738897196345,0.44837300234307986,0.7630644471633151,0.4810253851915903,0.38875067883981584,0.43181924345809347,0.7480919526302572,0.5724364513888945,0.5373378356711724,0.47808189720406796,0.5072361335197179,0.5617174379517484,0.23433382709251313,0.4813430693015909,0.6458427050200558,0.9709395174643642,0.9718984156220855,0.8396782551650985,0.8942983108932667,0.7074129816411842,0.6366377883667526,0.4945661592988394,0.6917954770278264,0.556811906358622,0.46420945279842957,0.4968940229723503,0.40990467981208206,0.44542505303087,0.23772869262295615,0.15428906479179003,0.10076126385341902,0.1706231483309668,0.13787771558131848,0.20252826981656866,0.13964113820543905,0.16931239307158444,0.2200286378026397,0.14658516846124475,0.06840856830070016,0.37803793902904614,0.020134874352216003,0.2904447760863933,0.30561000264810984,0.07275531171061432,0.28132582216510055,0.209540021218192,0.25504995059527924,0.09570842822731501],[0.21933031257187804,0.006289236586946459,0.1253655915384896,0.08483326103916326,0.07074090225609103,0.11232197348169576,0.037286390563623026,0.06350579026875672,0.168854764317648,0.0702930580221382,0.16130344195662075,0.004145381459612249,0.12516169942759284,0,0.04799302821337704,0.14933156646563828,0.045804177793783735,0.13308260246893672,0.2192549785632901,0.045804177793783735,0.15812290054599543,0.2663240796428973,0.2229594120086363,0.28440297161208145,0.29933015437371846,0.26715014107557616,0.36921601682392413,0.14385294694579362,0.3884624945166288,0.41115920409389184,0.3860938397199036,0.40163218711263354,0.42069973507159547,0.4360474151763608,0.6532459281898828,0.5106592427239816,0.45710922809320303,0.6191436373667711,0.09236769459013881,0.5569450514324354,0.5020271971486482,0.3981272238613165,0.2771821496699914,0.31869927813033255,0.6332627841739579,0.3776660111823755,0.2870595791246282,0.31155955270658237,0.6311836691274171,0.4476698048048568,0.41061952600136536,0.34942164977948914,0.3872768791436976,0.4524481646470872,0.10729514498286968,0.3714601177538891,0.523664824268416,0.8626438662005107,0.8631221097550134,0.7297577396558687,0.7942400833431444,0.597919248022955,0.5185686724623081,0.3651697271587535,0.5790684653114686,0.4342489603987295,0.3420518634710805,0.398205043974859,0.3194737898785793,0.3420727257467345,0.19061245728339868,0.05973406252951298,0.0761006332036895,0.10720909645438093,0.15369686986485429,0.17836985393472657,0.14986252736850258,0.11444329128607247,0.17555731169722796,0.1541374301403194,0.12871198180339202,0.351512853667636,0.10804527352753655,0.29745268699715494,0.3126479636480555,0.08174190375634897,0.3377271529424467,0.1338150451634403,0.14845303547727504,0.09450219249525883],[0.1753834167891365,0.05211926082190574,0.1782645043220001,0.13631452417144138,0.035474944651223674,0.1376578696691847,0.024642353584917967,0.013985181992269273,0.17836985393472657,0.08555626997190964,0.1998119222048332,0.04730442860540974,0.07349737408732226,0.04799302821337704,0,0.09928967405056055,0.015341068553585243,0.1348892568095987,0.2226309216389744,0.09833591505209043,0.17441725334249278,0.29122800109530833,0.27034195841055336,0.33499094410037483,0.34966671274008265,0.312533969860513,0.41755872923484316,0.19596895240086298,0.44108021377887346,0.4630816869956689,0.4356094446813454,0.45400185475890076,0.4707728412953735,0.48879378455664824,0.7053267083653538,0.5619473407804163,0.509534808186219,0.6712246917921183,0.14525741201334746,0.6098215519125294,0.5540387516731325,0.4508785909058626,0.32889523592162756,0.3700663677042306,0.6847816679660068,0.41195294105741453,0.3199197835486993,0.3556388020593508,0.6736185831035639,0.49491385764980605,0.45926629466071345,0.39968078221111814,0.43129406330727593,0.4902626785853998,0.1559926059183935,0.4093983121703965,0.5692304129882529,0.9004782851090337,0.9012135346556195,0.768352877753842,0.827705928648363,0.6361260834733483,0.5615854145428075,0.4161857668531822,0.6190508352213375,0.4799964504339778,0.3874306582531019,0.4300365912355949,0.3464126236214202,0.3761936642717118,0.19277247295729416,0.08213086253314465,0.052203814434657686,0.11308104369990987,0.12499464058279985,0.168854764317648,0.12302950392479084,0.11596994559281106,0.1757176814842289,0.12882028178183433,0.0822970280974273,0.3481117742241817,0.05995762348100557,0.2790151955651391,0.2945338536959051,0.04032207515439673,0.3021641212564493,0.14879877148454865,0.18275399615413518,0.06329386025026199],[0.15450111098817712,0.14986252736850258,0.2766941783973381,0.23018297429011791,0.07868055412920921,0.19257708413503155,0.12580934318800063,0.08140711555000278,0.198582479261245,0.14514489535620817,0.3017316469812729,0.14577070394087313,0.023220220488043296,0.14933156646563828,0.09928967405056055,0,0.09917382988610429,0.15380332396636345,0.2931446805062735,0.19985906105921522,0.26228190584536143,0.38194966006772013,0.3496462972961557,0.4211756843629384,0.45332835822861417,0.38591484017901656,0.49595550448809606,0.2897495579161806,0.5413191207630089,0.5651689428949216,0.5171285829091754,0.5460385443353541,0.5536414627684997,0.583267804528922,0.79478337530657,0.6484404208218258,0.6016183078978398,0.7607894967793162,0.24394383265926087,0.7056256075716498,0.6437146356160744,0.5455478210788569,0.43135490600429055,0.4729389215605442,0.7874479547953218,0.509150062657689,0.4168728066897916,0.45905832009302455,0.7758059073036877,0.599054916274007,0.5634436877613358,0.503396149694821,0.5345674464444513,0.5897587518569427,0.2600237727186132,0.5093377793637159,0.6729532747955287,0.9990487151380743,1,0.8677463650919488,0.9223888740958983,0.735476475926128,0.6642224390012501,0.5193976941200262,0.7197445773260435,0.5838254533142313,0.4912265565515239,0.5250143070183776,0.43792575251278554,0.47354447363304786,0.2643867490756744,0.18200678135748857,0.12882028178183433,0.19862990284588428,0.1611872682142295,0.22795551199662695,0.1635671401866541,0.19711876997904032,0.24672076923330788,0.17049939151702828,0.09099379332307717,0.40148971910950554,0.03688421723304652,0.31042147767286005,0.3253416347547387,0.10076126385341902,0.2918547189230367,0.23758943252162268,0.28292300377784774,0.12306721700551793],[0.19241818826221474,0.045804177793783735,0.17303954248999628,0.12806032963267333,0.021540454275130433,0.11898630098796513,0.039569015731018585,0.01672352315018122,0.15812290054599543,0.06637287500303427,0.2078002448232142,0.041688339161122114,0.07648690562575652,0.045804177793783735,0.015341068553585243,0.09917382988610429,0,0.11470581090655267,0.24075280185689463,0.0959000865874475,0.18961029984898092,0.3046371744001213,0.25746129281489394,0.3244124432677949,0.34998640137143616,0.2983769623050118,0.4049011693818473,0.18801603108599071,0.4374241878144867,0.46109246857926667,0.42382335752158934,0.4458267214675154,0.4594326072473198,0.48173988280729324,0.6963521030498703,0.5518414868251929,0.5014366472198258,0.6622687467441001,0.14014103569009098,0.6034970809165557,0.5450347228983925,0.44388468193627934,0.32735202024392857,0.3690418432059885,0.6834334286526831,0.4222841705682815,0.3306687103704994,0.3610259596775977,0.680155130679257,0.498152250147476,0.46130471122520333,0.4000801565218128,0.4367745799632172,0.49912497649952736,0.15785628545311098,0.4181294817902845,0.573738912547048,0.9094971301561535,0.9101091139832802,0.7769701976760285,0.8386262687763342,0.6448853792531628,0.5677407597435333,0.4156410643176767,0.6269170888625303,0.4843507804392841,0.39199809180665673,0.44135604687892555,0.359314183446749,0.38654406243006956,0.2109642229176068,0.09394238165995397,0.07210014191864163,0.1298626949849358,0.14514489535620817,0.18845326966124953,0.14325161084548724,0.1336235892271482,0.19413482444353547,0.149065399423267,0.09926651552294626,0.3674382152824872,0.05757035138930137,0.29925876858204736,0.3147759342163845,0.05999480877677601,0.3211061172055029,0.16406765260747191,0.19241818826221474,0.08353331961660732],[0.29726908967428317,0.12302950392479084,0.1976316757936449,0.14925332974433358,0.1020774099695357,0.05760895656508987,0.1554518491498643,0.12725950278049053,0.04142872455712604,0.05913408498174417,0.2878188916994676,0.12402517359957131,0.15153715654739644,0.13308260246893672,0.1348892568095987,0.15380332396636345,0.11470581090655267,0,0.35533752555344406,0.15671080056317707,0.2961170656205897,0.40151346724478976,0.21705917080505568,0.2945016205447505,0.3844612914976354,0.24362366073282138,0.3551767416817616,0.19357641879192058,0.44524820537758936,0.477702074856491,0.3795973624875002,0.42527852113615594,0.4169643274647119,0.46702474594414,0.6640745771092196,0.5150305839377628,0.4793541244922257,0.6306979433280864,0.17378374536595487,0.5899291434978539,0.5157401250906019,0.43100632832677743,0.35312715746996526,0.3951709051473149,0.6981905075918385,0.5033154458733008,0.41591063685140445,0.42071674242505586,0.7382609042764819,0.5423650302397292,0.5002200400981216,0.4324872440626001,0.4942568907773478,0.5717129854772736,0.2191688515412939,0.4918681028830853,0.6229251856196124,0.9783882353908491,0.9783587885011856,0.8447823583886404,0.9176305097919844,0.7147729239655606,0.6255905383225274,0.44219871532060506,0.6925431438577289,0.5347642062396932,0.44642588084479984,0.5264875149665191,0.45290691976740494,0.4684949260040182,0.32603499360303617,0.197619762503898,0.19159722592500075,0.24277758730155088,0.26364204738495833,0.3072220686267835,0.2622096521865205,0.24848851332543156,0.3099926813633181,0.2682300033353636,0.20854759959062139,0.485144138971789,0.12736899192458195,0.4187222487344693,0.4342489603987295,0.17785570100879286,0.43229412566117925,0.271723527633223,0.2799908207976218,0.20277239263796848],[0.20925855090279624,0.23018297429011791,0.2623360832699002,0.26336337556046835,0.26274206440130243,0.3339671801941728,0.1967122928380112,0.23753967738615886,0.3929998936203198,0.29424363030656314,0.15045380695081823,0.22811088485268718,0.2667507475859528,0.2192549785632901,0.2226309216389744,0.2931446805062735,0.24075280185689463,0.35533752555344406,0,0.21911500533813646,0.0687696752836264,0.11688467734205206,0.39104860272981884,0.4212832658517526,0.3183187913000296,0.43923151608251665,0.5153089507125547,0.2937592979598362,0.43655054408797356,0.4369930420893588,0.5216707739711206,0.49772999077753943,0.5482981156411675,0.5160968489052675,0.7386114698581292,0.6175331082667738,0.5464938248892786,0.706141592076949,0.2468070548739315,0.6180755780653914,0.5974427504758589,0.48189851764239905,0.3228775673482236,0.34889691753887486,0.6314112254626681,0.2524473259770247,0.17303954248999628,0.2652901839532755,0.534840207859928,0.4060418120101797,0.388480895568235,0.3569214300071372,0.3253343284982105,0.33874673705329034,0.1995170580998099,0.268979849896157,0.4589386924924913,0.7301090780386175,0.7319713218225242,0.6049033513119274,0.6415683642865891,0.476144677351162,0.4337816945264,0.3810442223608901,0.46915196568038603,0.3802807571021263,0.2996789107423283,0.2570931784105638,0.16598446972768668,0.22189805769833965,0.024967137768027992,0.15551202324909758,0.16813119631500162,0.10766011743787839,0.1349237714074515,0.06350579026875672,0.1302381379232932,0.10237019314722783,0.042407683141490814,0.12402517359957131,0.20028282344082116,0.12950415533763548,0.27126086020179746,0.12185483361516732,0.13157057491551674,0.1927114347020273,0.2284109789944402,0.08515531487568108,0.13066594249916624,0.16701206854594983],[0.26038782083589995,0.045804177793783735,0.0761006332036895,0.044892026081135045,0.11945281693011815,0.11614945870009054,0.08140711555000278,0.1142207074659468,0.18265110902150197,0.09394238165995397,0.12619639383693063,0.049432887073254356,0.17587790901527325,0.045804177793783735,0.09833591505209043,0.19985906105921522,0.0959000865874475,0.15671080056317707,0.21911500533813646,0,0.14925332974433358,0.2423973734087864,0.18620658289481945,0.2408902697481148,0.24947687838192495,0.2328770940429642,0.3291120174287835,0.09824239326232344,0.3378468473359362,0.3604782713523884,0.3439521381587373,0.3538677016769984,0.3774641362889077,0.3871353490890759,0.6059193915633199,0.465036814753617,0.4091361548771949,0.5718385070341369,0.04371538406993297,0.5073868734293657,0.45497352475780745,0.3492241146222414,0.22658373429064213,0.2682300033353636,0.5826767760271532,0.3421839700393886,0.25428773313746056,0.26707030929690995,0.5870339675864464,0.399889459736109,0.36181635207258794,0.29956006140552605,0.3424271927158063,0.41301083652179416,0.060990881218930586,0.33245431862227703,0.4771017459899112,0.8220531096176905,0.8223098332758452,0.6887237044696664,0.7576064540347734,0.5575373793072675,0.4741643701486427,0.31485140175925,0.5371598153264754,0.387725745310486,0.2961731687187481,0.36493493673462707,0.2921960078072239,0.30715248814132856,0.19334531400229388,0.06637287500303427,0.11308104369990987,0.11593001757677353,0.18523196545609855,0.19267480269806125,0.18025589790461005,0.1258831554258706,0.18128248729262028,0.18310082455001975,0.1736216384093686,0.3535312803388881,0.1583743039647337,0.3147155473526272,0.32925646030562844,0.12639867934168178,0.3697058485244148,0.12909064879704557,0.119530399555626,0.13271491937371857],[0.22125885442444834,0.16831237166424529,0.18866528634066246,0.19119160807863397,0.21443478743164193,0.26780564970313336,0.14551427691208496,0.19189169563901887,0.3303018098002724,0.23290753365995723,0.08451004733362809,0.16718040166872383,0.23430356896797372,0.15812290054599543,0.17441725334249278,0.26228190584536143,0.18961029984898092,0.2961170656205897,0.0687696752836264,0.14925332974433358,0,0.11478647034294001,0.31737683923639187,0.3492036736616985,0.2625617044185135,0.36556722681387716,0.44316905586749256,0.220082265353161,0.37817023299044383,0.3837417911426198,0.450539657883409,0.4315152688200969,0.47824173307412565,0.45286475458213166,0.6765885008322254,0.5508741958613468,0.4820075491119036,0.6435807017643848,0.1736216384093686,0.5598748462901474,0.5324701794261585,0.4174901871032638,0.261341078890557,0.2918140631466166,0.5889873217326516,0.2460390311934924,0.155271191223028,0.22584251136230013,0.5229750768898387,0.37137676657638224,0.3470096307938859,0.3057964371206887,0.29488818963171703,0.3301074056492571,0.1258831554258706,0.25249419956736696,0.4336716772671929,0.7353591443054395,0.7366227402169716,0.6057929728503073,0.6555807766595374,0.47410896491173826,0.41549760424733145,0.3286276780185881,0.4618426499224888,0.3490401034801435,0.2609783359447968,0.2591571470075675,0.170788021818779,0.21127695784938075,0.051094661587196985,0.09377137411580408,0.12871198180339202,0.058794114522862366,0.132574590977261,0.08087436221693076,0.1261595811130546,0.060990881218930586,0.05018250878435033,0.12261392395204773,0.18045125721785268,0.20150213905655506,0.23250135120580617,0.18666054719841452,0.19862990284588428,0.15663613759424322,0.27740445295071503,0.020706362194827965,0.06150148210712679,0.13574958109268118],[0.3265376817691208,0.27507870113450567,0.24772560136373348,0.2710073741641129,0.3303881754654284,0.36292004815211654,0.2617757191448721,0.3093483898834605,0.4299589188501575,0.3374805915539537,0.11842023986284361,0.2751217865884496,0.3539416720458903,0.2663240796428973,0.29122800109530833,0.38194966006772013,0.3046371744001213,0.40151346724478976,0.11688467734205206,0.2423973734087864,0.11478647034294001,0,0.36706866243568603,0.3748808256080805,0.22811088485268718,0.4125718174274573,0.46596521876844577,0.2766941783973381,0.3455874968472459,0.3375017323439641,0.4658422207676278,0.42324892414781695,0.4864177233769054,0.43314320980312715,0.6493593548437964,0.5416944661464625,0.4659600944932033,0.6184124464513931,0.24740066525366894,0.5229385088419585,0.51716093617255,0.40282340238405934,0.24421517100563397,0.25923023565183184,0.5174243095784761,0.13194133254653925,0.05370492690928978,0.15623235978663788,0.41395086519565366,0.2889131247838444,0.27662562351881986,0.2571208049292501,0.20709578444075039,0.2181327332250059,0.19208776424585505,0.14723677270758354,0.33779052577009583,0.6175214787399117,0.6189773570663095,0.48936526863189667,0.5359789506693187,0.35871747116325414,0.3119862288838955,0.28213392994927833,0.34944207816605627,0.261649022278537,0.188066051348887,0.14088766824545593,0.051094661587196985,0.10021183179337076,0.13194133254653925,0.20589737749304624,0.24828847144350155,0.17840934443116602,0.24364307683225306,0.17714139978005072,0.23777840900751357,0.18046427385189706,0.145658570850849,0.23283650182455545,0.2987268135016146,0.18275399615413523,0.3513774338400539,0.23205374635493006,0.2375098194031985,0.2762825984225897,0.34712616912278943,0.13955765378734733,0.11820484619924623,0.25528188982010536],[0.4471950618619345,0.2151376833877421,0.12380041347528813,0.13665581670353458,0.2689181754133036,0.15818208915575405,0.26504002967066853,0.2790916697270566,0.19810763414106036,0.19970582007701831,0.2488596013220202,0.2200286378026397,0.33423052565990086,0.2229594120086363,0.27034195841055336,0.3496462972961557,0.25746129281489394,0.21705917080505568,0.39104860272981884,0.18620658289481945,0.31737683923639187,0.36706866243568603,0,0.07309629987785153,0.22499397256238948,0.043316791251106976,0.14253331616275147,0.09239249505306646,0.2418504007165638,0.2812162154439354,0.16257603487103753,0.20419653169192648,0.19915083488621022,0.24718061803944819,0.44341131285090624,0.29521798977922686,0.2576175851360632,0.4097650539464761,0.14364194407205386,0.36923536444310673,0.29404999152476397,0.21265652339329202,0.18672351274386548,0.220585740931945,0.49123628313976436,0.41148962881565215,0.34879460637845283,0.2983530941173617,0.5821837977715699,0.37690211048981914,0.3307549816337697,0.2614407465935626,0.35597994471996935,0.4536283968255665,0.18666054719841452,0.3856554540228363,0.45905832009302455,0.8322404765460327,0.831075232296989,0.7008793118714619,0.7928378912001194,0.5806529276641373,0.47547711074560295,0.26147698014919973,0.5517721407530264,0.37977302927483014,0.30960166179921256,0.4412100388350218,0.39977619100286427,0.3839652268172405,0.3703300996151769,0.2562168269256662,0.30181819061766624,0.30283129516526347,0.3761936642717118,0.37909501458100026,0.3713190510977733,0.3134902492466962,0.36189529764003564,0.3742195194154589,0.3560267430575721,0.5215103736168658,0.3104750362203571,0.5004635958246952,0.5142921902043922,0.30949423802529974,0.5608139530721105,0.30479303226914944,0.26068778488890165,0.321098716026445],[0.506160824744199,0.2781981858305154,0.16468054570024457,0.19471584327346825,0.33874673705329034,0.2345354502083204,0.325275872625877,0.34591778043367527,0.27601646588465967,0.2725161191510093,0.26870661450476246,0.2830906129013754,0.40376324732378516,0.28440297161208145,0.33499094410037483,0.4211756843629384,0.3244124432677949,0.2945016205447505,0.4212832658517526,0.2408902697481148,0.3492036736616985,0.3748808256080805,0.07309629987785153,0,0.18832844530551035,0.07121781192927634,0.08911360094492093,0.13787771558131848,0.17372972605848444,0.21601315851047329,0.09877899165783863,0.12619639383693063,0.13167660835990233,0.16931239307158444,0.36888049897398834,0.2226309216389744,0.1799428935660491,0.33496964713830696,0.19326010219498324,0.29122800109530833,0.2182733224938588,0.13547485094613304,0.15161425174559578,0.17436342492374882,0.41744448616923413,0.3927997351338183,0.34515352673358857,0.2741118433440547,0.5294127142112439,0.32518816940799744,0.2790151955651391,0.21337619975871824,0.31913889180410643,0.4212662811063465,0.22189805769833965,0.36218461946834846,0.40543660790198005,0.7803636102840883,0.7787641938792151,0.6513735392964742,0.7497819553093561,0.5373378356711725,0.4278007366028317,0.20730054610643553,0.5062599609197526,0.33326154469291835,0.27686549262297816,0.4236601165622435,0.3978816927124099,0.3701886079857723,0.4046832634565223,0.30588961241969953,0.3588833227526421,0.34751663406531486,0.42889229435956056,0.4208867785975308,0.4234348545371544,0.3584851517733382,0.3991496596211968,0.42539068431290655,0.4177871227365368,0.5451400128274141,0.3808753889252179,0.5390793521041205,0.5518891572398964,0.37052938367705024,0.6110802208787253,0.34157168443467606,0.28596666852186536,0.37851650085186184],[0.4766409870254555,0.30018548107169046,0.18285682691024466,0.23286694663801769,0.37383110064778613,0.3242585447153784,0.32628279037080316,0.3670427151154746,0.3883029826653961,0.33402413709189965,0.17522274941447832,0.30377854949321526,0.42807388402495417,0.29933015437371846,0.34966671274008265,0.45332835822861417,0.34998640137143616,0.3844612914976354,0.3183187913000296,0.24947687838192495,0.2625617044185135,0.22811088485268718,0.22499397256238948,0.18832844530551035,0,0.25420393857447754,0.2624263545789881,0.1875652637627288,0.11389620478046789,0.11660700963709231,0.25361661616681036,0.1940135652521983,0.2661015907207823,0.2002240199024009,0.4177642889399342,0.31011525415092145,0.23336366127772928,0.3862110708631653,0.21144430846985776,0.29488818963171703,0.2844279905727908,0.17129541060073292,0.03345276134375161,0.026309801341601175,0.3319103173919047,0.20493372433244614,0.18050331827122604,0.086220608382733,0.35632076521096323,0.1540160182525465,0.11085144082714635,0.04518186836754818,0.12707681904087437,0.22816265278803713,0.1890264269147713,0.17150069302473714,0.23598215507453288,0.6044837906819708,0.6035962204177074,0.47219607284959275,0.5629977468842265,0.35074705430996095,0.24688372839826134,0.06322307042328658,0.32210373866750347,0.15153715654739644,0.0836423769197851,0.23598215507453288,0.23097193779411315,0.18822852773679893,0.31449654926798093,0.27877714411514226,0.34251748920000746,0.2959085910779013,0.38718458272844525,0.348159615459888,0.38065016267500823,0.305454555040095,0.3174217565150332,0.37939650212202236,0.4083662008096263,0.41522776670136835,0.41227116974930056,0.44507665036943816,0.45425941618350224,0.3656128142528603,0.5446528778054252,0.2695782522908209,0.19976477249396654,0.35981069792696957],[0.49111955149291237,0.25869988386507087,0.17199239893787938,0.18310082455001975,0.30752340500102276,0.18972190549202692,0.3093483898834605,0.3198826408005119,0.21700481270690544,0.23623243490799956,0.2958845270252737,0.2635342087377052,0.3725228300017195,0.26715014107557616,0.312533969860513,0.38591484017901656,0.2983769623050118,0.24362366073282138,0.43923151608251665,0.2328770940429642,0.36556722681387716,0.4125718174274573,0.043316791251106976,0.07121781192927634,0.25420393857447754,0,0.10669141204470921,0.14060605730318718,0.2498370552427198,0.29210666052737166,0.13144676502000857,0.19212450538892586,0.168854764317648,0.23710139111691622,0.41688996834769343,0.2675223800661955,0.24132181206160863,0.38394040697125653,0.19148668595498675,0.35510302507605185,0.271400615023755,0.2065373731019021,0.21603500094249797,0.24471830260074484,0.491109822615659,0.4497496005934535,0.3915358042705214,0.33384611498982647,0.6035605320581151,0.3986297967193456,0.35230403105254093,0.28490294046073794,0.38619256301878035,0.48639807921948836,0.2348174376864339,0.4219847107770617,0.4796629455550318,0.8544393142843878,0.852966762379767,0.7246029769220471,0.8206338569219661,0.608048775029463,0.500062382619715,0.2810475076845116,0.57782760650301,0.4048010648346035,0.34150900331702866,0.4799914744354339,0.4431905951250895,0.4238177295576725,0.4185570413793728,0.3034187791517833,0.34702334318846173,0.35056383151425075,0.422329353813891,0.4269802578362355,0.4176101285366858,0.36116440153679175,0.4100675172788928,0.42071674242505586,0.3991138284824245,0.569436303518544,0.34817328319376023,0.5484856334528952,0.5623685873084071,0.35316759028074707,0.6071387788228763,0.3530058316322531,0.3083871699480393,0.3660878923036982],[0.5930645612321994,0.3618689843389041,0.2563461581414436,0.2808533706304183,0.41607115120421206,0.3009122058809701,0.411014198156501,0.4265330831479548,0.32715588918809857,0.34591778043367527,0.36248028112549235,0.36677665064690224,0.48134803146899124,0.36921601682392413,0.41755872923484316,0.49595550448809606,0.4049011693818473,0.3551767416817616,0.5153089507125547,0.3291120174287835,0.44316905586749256,0.46596521876844577,0.14253331616275147,0.08911360094492093,0.2624263545789881,0.10669141204470921,0,0.227706699568714,0.2069933294109029,0.2509145432978368,0.02456059831558086,0.11415993057543619,0.05973406252951298,0.15666600692190116,0.3074075408025699,0.1583743039647337,0.1486260007966666,0.2751217865884496,0.282939769081962,0.26038782083589995,0.16741859212366325,0.1390054420573658,0.2298954212106923,0.24116497514650878,0.4162774369158244,0.47196843884863643,0.4327354139343261,0.3526753471859661,0.5723403203193483,0.3755029274914775,0.3315662845111631,0.2747769171149323,0.38633443411825186,0.48967271731281353,0.3152133983145138,0.4388184400188386,0.45011563658581105,0.8212590957723077,0.8190364718382954,0.69702273338313,0.8025811902207133,0.5924549513435791,0.4799317584695132,0.261649022278537,0.5593191848579011,0.38983408067130254,0.3492036736616985,0.5030352566663346,0.48553295734008955,0.4526275030117802,0.49856936298912924,0.39649552750269706,0.4465595132225032,0.4397364686373822,0.5188036951678151,0.5139063219134034,0.5135667064175163,0.4506667873160112,0.49278039272725616,0.5158884036204421,0.5027121348929676,0.6387067826629226,0.4573754972620296,0.6327180984127034,0.6456424510816525,0.4558698406980154,0.7022181739342344,0.43514910653554284,0.37997369314212676,0.46606256940500546],[0.36352960107970395,0.1390054420573658,0.026540792808953467,0.055047942195850484,0.20616046766485496,0.13224073560533484,0.1835622696121966,0.20888644268329692,0.19595694049712015,0.15020512183483972,0.15509032931640307,0.14377182743127798,0.26921760720869825,0.14385294694579362,0.19596895240086298,0.2897495579161806,0.18801603108599071,0.19357641879192058,0.2937592979598362,0.09824239326232344,0.220082265353161,0.2766941783973381,0.09239249505306646,0.13787771558131848,0.1875652637627288,0.14060605730318718,0.227706699568714,0,0.2510088433721666,0.28060840098139456,0.24125320820658552,0.2531588857557204,0.27438842995605234,0.28887206193067105,0.5045104514094125,0.3622569143035857,0.3087258553386375,0.47040748401430327,0.050531765077223054,0.4109793892084685,0.35326865233928423,0.2510559803815795,0.1548337577574152,0.19672425974382945,0.5026313223071565,0.33969329327814407,0.2663240796428973,0.23772869262295615,0.5465288309009985,0.3464126236214202,0.30308992617341995,0.2345354502083204,0.3062620346198065,0.3945371504954157,0.08944661775309273,0.3194365960574925,0.42803487351543323,0.791654386236274,0.7911574562901311,0.6583259080329398,0.7404686570939535,0.5316253794905658,0.43501749287673147,0.24371102123947616,0.5062741216610901,0.34151596844571724,0.2578931683724424,0.367528926556202,0.31470799819245615,0.30861043551345535,0.27313294565833707,0.16388192124384063,0.21618783754798138,0.20794765858605394,0.28646395425336146,0.28340043290707867,0.2811234384901433,0.21879165593939404,0.26504002967066853,0.2833251019344575,0.2761538560802051,0.4246498661230908,0.24818362450034093,0.40414094016233437,0.4177642889399342,0.2288345926298248,0.4695996567948168,0.2077321732343508,0.16468054570024457,0.2358318622816536],[0.5844521775033745,0.3867289354070616,0.25980510353570857,0.30793244816530935,0.4584963225393059,0.3827285123739929,0.42153795585620013,0.4567435105509849,0.4374241878144867,0.406124003971507,0.2892332183027903,0.39099984960101114,0.5183796561022463,0.3884624945166288,0.44108021377887346,0.5413191207630089,0.4374241878144867,0.44524820537758936,0.43655054408797356,0.3378468473359362,0.37817023299044383,0.3455874968472459,0.2418504007165638,0.17372972605848444,0.11389620478046789,0.2498370552427198,0.2069933294109029,0.2510088433721666,0,0.039296957304929374,0.18691228537122279,0.10055556225215179,0.18412472834554092,0.08841815393609108,0.29913181912399484,0.20139690618776304,0.1228029915779043,0.26792064398345045,0.2924638885792962,0.176902675750069,0.17182864896270633,0.07210014191864163,0.1133873873484013,0.08287613077722662,0.24808827139287523,0.2996392994500865,0.29492038122520564,0.1920142613950001,0.3606037182165652,0.16565942320180232,0.12471573073499692,0.0889337947308625,0.1945586511161885,0.29413875819715846,0.2869273230966487,0.2623721954520707,0.23822539900212955,0.6102178594018666,0.6081589858148715,0.485144138971789,0.5912905235338384,0.3825977745897576,0.2695782522908209,0.06582922554519763,0.34879460637845294,0.1840225876664597,0.17219687350268637,0.32925646030562844,0.3427396575509887,0.2918140631466166,0.43144338932852816,0.3809441818350976,0.44388468193627934,0.4053425154985384,0.49647551638898185,0.46304043861565275,0.49006772786987207,0.4155033435900517,0.4332588665238232,0.48953121706306046,0.5094222295297139,0.5331522394333136,0.4995317185795678,0.5633035726262127,0.5727372800057655,0.46415801572137383,0.6604217504368788,0.3827285123739929,0.3133992987943071,0.4623851328883956],[0.5975348760221736,0.41046271393044,0.28554330623937696,0.33501223972814415,0.4833683882594686,0.41535983650866065,0.4416857411554616,0.4795583669187976,0.47269143370160244,0.4350613684708805,0.2967416247825548,0.4144920097550284,0.5411644917938934,0.41115920409389184,0.4630816869956689,0.5651689428949216,0.46109246857926667,0.477702074856491,0.4369930420893588,0.3604782713523884,0.3837417911426198,0.3375017323439641,0.2812162154439354,0.21601315851047329,0.11660700963709231,0.29210666052737166,0.2509145432978368,0.28060840098139456,0.039296957304929374,0,0.23015218185697664,0.14113569755076388,0.22506742666616372,0.1200528224417189,0.31042147767286005,0.23059315534693142,0.15333134069173368,0.2815112149104248,0.3173468909058064,0.18103610368139186,0.1982383271928899,0.11252761141055403,0.12937844030912832,0.08977846338346493,0.21787295072059942,0.27535433358498224,0.2833251019344575,0.17794809131942038,0.3165372312925669,0.12471573073499692,0.08779559930405494,0.07574243209966207,0.165050060032514,0.2600237727186132,0.3049020861251677,0.23757948231124223,0.1945586511161885,0.5660190499664717,0.5639529064222774,0.44121003883502186,0.5481716142432692,0.34058837378050644,0.2275095341611107,0.051094661587196985,0.30640932866339143,0.14607464539823975,0.15204528505565698,0.30364563975575737,0.3277366819516902,0.27221154452746504,0.4348638938253252,0.39731220309210935,0.46093192823438267,0.4169814853997599,0.5083326960835981,0.4694470822922741,0.5018177259521114,0.42666728420446076,0.4384321922859118,0.5006927175693129,0.5268188780325679,0.5247319297630674,0.5235415580516295,0.5634182148515912,0.5718719748358652,0.4828146138859466,0.6654617515955931,0.39109734985657924,0.3212836951244588,0.4787807891931864],[0.6089770750835648,0.3792960325613276,0.26837130811615467,0.2968216029753448,0.43622248162224037,0.32381843756021567,0.42746603536187766,0.4454464843911207,0.35316759028074707,0.3671464935389437,0.3673345181879619,0.3842071373499037,0.5015319437853708,0.3860938397199036,0.4356094446813454,0.5171285829091754,0.42382335752158934,0.3795973624875002,0.5216707739711206,0.3439521381587373,0.450539657883409,0.4658422207676278,0.16257603487103753,0.09877899165783863,0.25361661616681036,0.13144676502000857,0.02456059831558086,0.24125320820658552,0.18691228537122279,0.23015218185697664,0,0.0885473308471862,0.032497469160029255,0.1292526074831808,0.28067599980344726,0.13130513020153964,0.11945281693011815,0.24795471663545268,0.2966936276869508,0.2309207865287482,0.1384342717054575,0.11508846036961637,0.2236466493680294,0.22996734248422426,0.38811271084737053,0.46339093403822107,0.42954813413204807,0.34464999865236295,0.5508741958613469,0.3570147771569642,0.3141639892764113,0.2609783359447968,0.373161576354198,0.4762600272694825,0.32492491983339394,0.42918698903575747,0.42960922129822837,0.7987683035032436,0.7964110411090949,0.6758729325995718,0.7830904780142565,0.5741432473941568,0.46123742523919037,0.24586590171386002,0.5405322665764393,0.3730466816759812,0.3384095548225094,0.4944115489822371,0.4821561890549563,0.445933772612863,0.5063307607041052,0.4095555269533955,0.46188400414496217,0.4510532548010355,0.5325016090988994,0.5239660207383539,0.5270729344594569,0.46202871508141713,0.5014890625501193,0.5290648861463635,0.5197105391457332,0.6422510240530938,0.47790201860179365,0.6412883773454156,0.6538249218128808,0.47259543450978214,0.7147595130188609,0.4440728150094635,0.3860938397199036,0.4814869516031586],[0.616027215226303,0.3970721766212308,0.27304615150441297,0.3130352368164793,0.4626690394500627,0.36467388354777014,0.440170378072958,0.46686110979554946,0.4069567384079752,0.39977619100286427,0.3430657101539894,0.4018279991363875,0.5267099595401846,0.40163218711263354,0.45400185475890076,0.5460385443353541,0.4458267214675154,0.42527852113615594,0.49772999077753943,0.3538677016769984,0.4315152688200969,0.42324892414781695,0.20419653169192648,0.12619639383693063,0.1940135652521983,0.19212450538892586,0.11415993057543619,0.2531588857557204,0.10055556225215179,0.14113569755076388,0.0885473308471862,0,0.07902621793510875,0.04032207515439673,0.24725717797977598,0.11494762637688495,0.050705570784868446,0.21322139317058722,0.30529125121488193,0.16013802487244064,0.09727886035121558,0.023730213794237932,0.17426918628004948,0.165050060032514,0.2994253093825203,0.3974801364323193,0.37893789603631683,0.28296491520743355,0.4592662946607135,0.2703945497070382,0.23018297429011791,0.18700031571874437,0.29752449908857487,0.39865371314895137,0.31837850512114924,0.36118417467155406,0.3393920800208079,0.7061144443329052,0.7036668881319079,0.5844521775033745,0.6934973311420765,0.4866337572945471,0.37355705771206144,0.16741859212366325,0.45239540468471323,0.28948740334686246,0.2695079197364785,0.4279178208910129,0.42985903396498276,0.3852598673429308,0.4872077497511983,0.41078788789308285,0.46959457176846564,0.44507665036943816,0.532869648476232,0.5120333418560588,0.526873328913141,0.45591173091927617,0.4855624752550938,0.5276713022407533,0.5322725793763563,0.6076116728605255,0.5049128969367822,0.6224869100923858,0.6335954189549887,0.48514413897178893,0.7084284617727559,0.430297247143881,0.36511756438365084,0.48908693589921226],[0.642746713246312,0.41421001093972015,0.3003831318100427,0.33112856783876277,0.4723730464586034,0.3609468265232073,0.46176510087818784,0.4810303506029996,0.3905302933947067,0.40376324732378516,0.39318176855018705,0.4191150695333916,0.537653677930265,0.42069973507159547,0.4707728412953735,0.5536414627684997,0.4594326072473198,0.4169643274647119,0.5482981156411675,0.3774641362889077,0.47824173307412565,0.4864177233769054,0.19915083488621022,0.13167660835990233,0.2661015907207823,0.168854764317648,0.05973406252951298,0.27438842995605234,0.18412472834554092,0.22506742666616372,0.032497469160029255,0.07902621793510875,0,0.111080490275919,0.2433613947746102,0.09403996756853697,0.09325656415284496,0.2107741269068528,0.3296894148123619,0.1998119222048332,0.10360015041436858,0.10766011743787839,0.239719330388084,0.23980808467115092,0.36396811714331156,0.4742701259935988,0.44700288934357163,0.35702144388927126,0.5418842486119789,0.35429786122762913,0.3136493500560517,0.2666707984056252,0.3784724477657259,0.4805733201679616,0.3549957739692587,0.43890543535057647,0.4228937417395762,0.7872956803489348,0.7846841869183043,0.6671189909650337,0.7770288295536729,0.5705569025414559,0.45748509294157325,0.24886910926383746,0.5362777522744534,0.3729572949960355,0.347290628175846,0.5050832487198692,0.4991489115897022,0.4592351044163596,0.5342095173857533,0.4417451683226686,0.49545424151189,0.48189851764239905,0.564902230367254,0.5536889795752208,0.5593491190277118,0.49288219363475283,0.5301708269843274,0.5611081701346019,0.5542113979286856,0.6659978363444056,0.5141806433099277,0.6695918496023012,0.6817804241010438,0.5069910864945975,0.7461283274056336,0.4730802856617081,0.41296464570557334,0.5150909093845153],[0.6460317771730018,0.43220029450969105,0.3061457005808665,0.3487877845821757,0.49969910531915124,0.40581276196079846,0.47332757229076367,0.5024458800907758,0.4501951706714679,0.4388401904506776,0.3635426986684727,0.4368619777775035,0.5629977468842265,0.4360474151763608,0.48879378455664824,0.583267804528922,0.48173988280729324,0.46702474594414,0.5160968489052675,0.3871353490890759,0.45286475458213166,0.43314320980312715,0.24718061803944819,0.16931239307158444,0.2002240199024009,0.23710139111691622,0.15666600692190116,0.28887206193067105,0.08841815393609108,0.1200528224417189,0.1292526074831808,0.04032207515439673,0.111080490275919,0,0.21908269140306902,0.10806663258855577,0.029472717978697032,0.1858401037415849,0.3389362567550158,0.11828321474051262,0.07948490079036223,0.033009953160668695,0.18841583081692348,0.16931239307158444,0.25505923213732334,0.3929695730492937,0.38492577884436774,0.2839355532377166,0.42780073660283174,0.24848851332543156,0.21265652339329202,0.18200678135748857,0.28693559085428194,0.3845604286142059,0.3466391939643611,0.35568564467041264,0.3111857386031857,0.6717562109158148,0.6690693638384173,0.5529541768671512,0.6646694323562465,0.46132023738141464,0.3488287133864914,0.15915561844761736,0.4264603734768218,0.2710073741641129,0.2654330253317145,0.4225551984039875,0.43401264101080367,0.3846657341584521,0.5078576500340319,0.4404034296942036,0.5008454077333365,0.4716191888531357,0.5609930599358471,0.5355103471663882,0.5548324835339771,0.4822800210323259,0.5076176079971452,0.5551772334954916,0.5646608114153076,0.6198121783274285,0.5418357058796536,0.6421466200467908,0.6525416547131628,0.5178675859193448,0.732890870041036,0.4538966860953092,0.38663650982973197,0.52013350336028],[0.868003471284418,0.6483074559292856,0.5251827508085231,0.5641183043705171,0.7119746803408922,0.606476112673312,0.6921832562256987,0.7176070849262641,0.6387405222848739,0.6462874932962747,0.5871929181323986,0.6531102674550906,0.7766553618815688,0.6532459281898828,0.7053267083653538,0.79478337530657,0.6963521030498703,0.6640745771092196,0.7386114698581292,0.6059193915633199,0.6765885008322254,0.6493593548437964,0.44341131285090624,0.36888049897398834,0.4177642889399342,0.41688996834769343,0.3074075408025699,0.5045104514094125,0.29913181912399484,0.31042147767286005,0.28067599980344726,0.24725717797977598,0.2433613947746102,0.21908269140306902,0,0.14446801566952316,0.19255264693840293,0.029190870293572906,0.5573099648768253,0.12736899192458195,0.14640987043068726,0.25561551954617223,0.411014198156501,0.3865872072665633,0.2675223800661955,0.5880033100419151,0.5972945189379658,0.49250882178395583,0.5280155122575074,0.4114374739249199,0.3927572643213681,0.3886035472564528,0.47505501134030714,0.5572198318235264,0.5694699112906689,0.5503095267224096,0.44177217805776975,0.735724114973228,0.7314767130633593,0.6425678616626302,0.7631963948835097,0.5891295025548042,0.4892041477380688,0.36362782164947016,0.5543149600980815,0.44109644397751807,0.4673467389154916,0.6147162919134518,0.6429255154535977,0.587258116270352,0.731329248835013,0.6625580079180663,0.7217429736413541,0.6952364046288056,0.7840697209388794,0.7594900928197944,0.7779817526416758,0.7059515360965339,0.7314373921566837,0.7785178399975685,0.7843907703043494,0.8370114342548525,0.754197133029497,0.8650546435225392,0.8750814708645495,0.7372244704886011,0.9568854261026284,0.677890182776598,0.6104649318518507,0.7412192925074919],[0.7295902201643429,0.5049838837629168,0.38542680436317744,0.42097177122586205,0.5662472213146225,0.45802747008045896,0.5507309111174368,0.5733009118111047,0.4893603869522345,0.4991489115897022,0.4627103205907274,0.5098489599612616,0.6313012500631701,0.5106592427239816,0.5619473407804163,0.6484404208218258,0.5518414868251929,0.5150305839377628,0.6175331082667738,0.465036814753617,0.5508741958613468,0.5416944661464625,0.29521798977922686,0.2226309216389744,0.31011525415092145,0.2675223800661955,0.1583743039647337,0.3622569143035857,0.20139690618776304,0.23059315534693142,0.13130513020153964,0.11494762637688495,0.09403996756853697,0.10806663258855577,0.14446801566952316,0,0.0736817949467426,0.1118476318157067,0.41652942677424043,0.12486455724830436,0.030304729523846996,0.13404097116877206,0.2933955326501309,0.2798298610646168,0.3036690985750428,0.5059483253009657,0.49551210517269273,0.3960805487398412,0.5199496477569808,0.35568564467041264,0.32312039363434886,0.29488818963171703,0.399346674115899,0.4954494192381065,0.4348638938253252,0.46865290247081404,0.4105614543574979,0.7549691362021392,0.7516978308059008,0.6435807017643848,0.7593417194536211,0.5625727154912034,0.45193613591455967,0.27213317121756536,0.5272543290786993,0.3802995489846989,0.37835914515084706,0.5355103471663882,0.5454250718949156,0.4973025718978011,0.6066734097890693,0.5255968039534303,0.5823851472132132,0.5621303448867285,0.6484736578170647,0.6305612660539177,0.6426312105814145,0.5730421269375616,0.6046540246179998,0.6437853117781013,0.6433164733385324,0.7269145844735451,0.6083360687958999,0.7420693161154879,0.7532906956226131,0.5959989447798993,0.826203430850189,0.5489258325661097,0.48452828900541794,0.6020080450876832],[0.6705570256073254,0.4526275030117802,0.3282223167708898,0.3686222032456436,0.518268980692831,0.41920610644908746,0.49545424151189,0.5224583181715449,0.4595624975200526,0.4550994288424133,0.3929453149287546,0.4573754972620296,0.5823276258459639,0.45710922809320303,0.509534808186219,0.6016183078978398,0.5014366472198258,0.4793541244922257,0.5464938248892786,0.4091361548771949,0.4820075491119036,0.4659600944932033,0.2576175851360632,0.1799428935660491,0.23336366127772928,0.24132181206160863,0.1486260007966666,0.3087258553386375,0.1228029915779043,0.15333134069173368,0.11945281693011815,0.050705570784868446,0.09325656415284496,0.029472717978697032,0.19255264693840293,0.0736817949467426,0,0.15866957802801535,0.3606037182165652,0.10902364617276007,0.046371915228263096,0.05969672716272996,0.21954541327575638,0.20266780372661533,0.26581653809351113,0.42735441069110697,0.4184487671221504,0.3180051125769007,0.4548633304015781,0.2806422023927412,0.2460390311934924,0.21635147390234924,0.3211061172055029,0.41819221756748276,0.3720942645083738,0.39006628793317927,0.34054646868906957,0.6962006926323824,0.6933176564208956,0.5797126710516661,0.6929063036564544,0.49160089265138607,0.3796224626560857,0.19353994645428593,0.4565396279071121,0.30398952389020234,0.29979771372301645,0.4569316300286916,0.4678420770881279,0.4189272441395296,0.5373467351542782,0.4650932894360872,0.5244402855660283,0.4982050076502111,0.5867037030738974,0.5637450305523758,0.5806405656689705,0.508971668273013,0.5364961744179162,0.5812583460609434,0.5874251537429177,0.6522002508925892,0.560515315555795,0.6721233929593192,0.6828021762338983,0.5403552891589838,0.7607296213150856,0.4820075491119036,0.4156295893129957,0.5438839938955813],[0.8340485836118142,0.6142059552949484,0.49111955149291237,0.5300174861166859,0.6779431878330834,0.5728542266114779,0.6580966713761777,0.683517551908487,0.6058522348800934,0.6123949570841967,0.5542243442488529,0.6190082962915568,0.7425988795604708,0.6191436373667711,0.6712246917921183,0.7607894967793162,0.6622687467441001,0.6306979433280864,0.706141592076949,0.5718385070341369,0.6435807017643848,0.6184124464513931,0.4097650539464761,0.33496964713830696,0.3862110708631653,0.38394040697125653,0.2751217865884496,0.47040748401430327,0.26792064398345045,0.2815112149104248,0.24795471663545268,0.21322139317058722,0.2107741269068528,0.1858401037415849,0.029190870293572906,0.1118476318157067,0.15866957802801535,0,0.5232264136782511,0.10326609440337078,0.11232197348169576,0.22204694609450545,0.37839062145893726,0.3549957739692587,0.26024226156810204,0.5605793225860043,0.5670240105357411,0.462648397512956,0.5139156233188127,0.38728303146576754,0.3661854357561169,0.35858473540748054,0.4481227465316119,0.5329907770653187,0.5356621299152957,0.5228105007195311,0.422329353813891,0.7286698237592018,0.7246327440710566,0.631050890330356,0.7510852789016362,0.5715958073669385,0.4689890640526758,0.3337178811263487,0.5364917177039796,0.41634044851214264,0.43840497905739595,0.5878282940711532,0.6133518563713658,0.5586345417366086,0.6984684266630479,0.6286446882558936,0.6877246224580323,0.661588488831352,0.7502709652493107,0.7262251698037011,0.7441982078474948,0.6723229423731559,0.6983620755471641,0.7447777654814726,0.7503188903573967,0.8059834746993068,0.7201706541169598,0.832456618189862,0.8426242724987062,0.7031456924881846,0.9235304753130077,0.6445771023665834,0.5773802500182499,0.7072097118468891],[0.30848727418086536,0.08954884826781753,0.028112525153016498,0.020706362194827965,0.16130344195662075,0.1199948833571866,0.1299700710327592,0.15990395257662907,0.18885216722666665,0.11828321474051262,0.12438024472214214,0.09396678716614561,0.22135485003191105,0.09236769459013881,0.14525741201334746,0.24394383265926087,0.14014103569009098,0.17378374536595487,0.2468070548739315,0.04371538406993297,0.1736216384093686,0.24740066525366894,0.14364194407205386,0.19326010219498324,0.21144430846985776,0.19148668595498675,0.282939769081962,0.050531765077223054,0.2924638885792962,0.3173468909058064,0.2966936276869508,0.30529125121488193,0.3296894148123619,0.3389362567550158,0.5573099648768253,0.41652942677424043,0.3606037182165652,0.5232264136782511,0,0.4596663835909521,0.4063470136353694,0.30101475605298644,0.18488903138730658,0.22717708749879864,0.5400852879496476,0.3303018098002724,0.24808827139287523,0.24207519680115477,0.5598748462901474,0.36655586727707384,0.3261880664459459,0.2610690680599126,0.31562015576630364,0.3944948644305087,0.05040105239697416,0.31561262791192596,0.44596053142775294,0.7998184234081612,0.7997464589513085,0.6661992071444145,0.7411255043841662,0.5365451958501385,0.44709898581552127,0.2743625115976175,0.5139156233188127,0.35720139926635963,0.26792064398345045,0.35568564467041264,0.2918547189230367,0.2966936276869508,0.22402638544697426,0.10874800327227051,0.16112915086189847,0.15428906479179003,0.23105375675510897,0.2305829095278228,0.2257483834240475,0.16497906200122128,0.21443478743164193,0.2280383904160709,0.22224885282994775,0.3799799622022679,0.2021557197087689,0.35215539648185334,0.366139918669396,0.17502171345019185,0.4144632430531585,0.1581968829522214,0.12691218721901076,0.18077639933210862],[0.7623477635977294,0.5535766606077479,0.42668964699031275,0.47073225990080153,0.6220329337793243,0.5288976673662429,0.5931775331852279,0.6239696618587288,0.5719849143323514,0.5619218006264436,0.4707728412953735,0.5581676518860206,0.6848656267945473,0.5569450514324354,0.6098215519125294,0.7056256075716498,0.6034970809165557,0.5899291434978539,0.6180755780653914,0.5073868734293657,0.5598748462901474,0.5229385088419585,0.36923536444310673,0.29122800109530833,0.29488818963171703,0.35510302507605185,0.26038782083589995,0.4109793892084685,0.176902675750069,0.18103610368139186,0.2309207865287482,0.16013802487244064,0.1998119222048332,0.11828321474051262,0.12736899192458195,0.12486455724830436,0.10902364617276007,0.10326609440337078,0.4596663835909521,0,0.09606748925138138,0.1554518491498643,0.2941226207620843,0.2642881720917514,0.17508875038598265,0.4561472924974491,0.46924866204177507,0.3638961577430176,0.4111128076928938,0.27955856512428,0.2606332711734398,0.2609329582747662,0.3430171684929742,0.4253514305270072,0.46289604064404427,0.41852285249970334,0.3149419393066514,0.6354331259971507,0.63179030529203,0.5311394667864122,0.6499602076892564,0.46520108589993286,0.36118417467155406,0.23590201059099145,0.42994227296257914,0.308979629563365,0.3371774299962483,0.4826018369678806,0.5133805213586068,0.45643503775446076,0.6132581847417135,0.5572284165464824,0.6189386808770027,0.5849391692739082,0.6755645104892616,0.6445176586732896,0.6692483429114666,0.5953159404141812,0.6149693564171929,0.6690693638384173,0.683584142196458,0.7104146211109426,0.6640745771092196,0.7448421331200513,0.7540540833046278,0.6372204842437879,0.8420262024218619,0.5638256445003221,0.4948028136405904,0.6379565563882093],[0.7179443011951918,0.49701421894107584,0.3744231210353318,0.4128202664850911,0.5607840964149164,0.4570413310130804,0.541168910372067,0.5662852410112634,0.4927997849816379,0.49562781242674925,0.4435727448068722,0.5018224876227384,0.6253915063484117,0.5020271971486482,0.5540387516731325,0.6437146356160744,0.5450347228983925,0.5157401250906019,0.5974427504758589,0.45497352475780745,0.5324701794261585,0.51716093617255,0.29404999152476397,0.2182733224938588,0.2844279905727908,0.271400615023755,0.16741859212366325,0.35326865233928423,0.17182864896270633,0.1982383271928899,0.1384342717054575,0.09727886035121558,0.10360015041436858,0.07948490079036223,0.14640987043068726,0.030304729523846996,0.046371915228263096,0.11232197348169576,0.4063470136353694,0.09606748925138138,0,0.11070544582744406,0.27077116040318844,0.25361661616681036,0.27199378611805375,0.4758185388131603,0.4693046351337594,0.3681826901165868,0.4847451565311295,0.3217641505793548,0.2903467268762943,0.26567389917014467,0.36780092791296803,0.46260711090459045,0.42056932277665854,0.4383178854982007,0.37553464010915016,0.7202538430175192,0.717025768661718,0.6084304921471767,0.7241265372417276,0.5275942774442302,0.4171987588768645,0.24224121901716578,0.4922565159389398,0.3469273452036281,0.34884917601291054,0.5050264711153163,0.518388877996453,0.46854079556978934,0.5879422638270859,0.512858847018653,0.5712818200262207,0.5472241149763521,0.6350448928746489,0.6137029986572272,0.6290558712666753,0.5580476543688774,0.586805656232384,0.6298622337207855,0.6335009380622304,0.7034761682047955,0.6030209862621665,0.7228909758651968,0.7336786097265584,0.5862793892284022,0.8103724928309275,0.5319490769604691,0.46606256940500546,0.590816824603277],[0.6084894993606894,0.3943014996654616,0.2682300033353636,0.3109490154882624,0.46196670160094383,0.3694739028697017,0.43542865494585875,0.4645642150323221,0.4155033435900517,0.40158470332623913,0.32837438501485433,0.3989585234802823,0.525164543249595,0.3981272238613165,0.4508785909058626,0.5455478210788569,0.44388468193627934,0.43100632832677743,0.48189851764239905,0.3492241146222414,0.4174901871032638,0.40282340238405934,0.21265652339329202,0.13547485094613304,0.17129541060073292,0.2065373731019021,0.1390054420573658,0.2510559803815795,0.07210014191864163,0.11252761141055403,0.11508846036961637,0.023730213794237932,0.10766011743787839,0.033009953160668695,0.25561551954617223,0.13404097116877206,0.05969672716272996,0.22204694609450545,0.30101475605298644,0.1554518491498643,0.11070544582744406,0,0.155271191223028,0.14133381812642512,0.2803378454968641,0.37160754002064134,0.35670797460935816,0.2585991794894219,0.4313659674012237,0.24175259938880342,0.2016890873649712,0.1604447419225593,0.2700613016176382,0.37070929130808883,0.3092792802911496,0.33499094410037483,0.3110635810764688,0.6788012972503954,0.6764256157334753,0.556498246454337,0.6651161275103601,0.458027470080459,0.3449466850990823,0.14000789830053859,0.4238233575215894,0.2609783359447968,0.2435168450610705,0.40184579555524225,0.4069567384079752,0.3605707100584738,0.472777311362099,0.4028648247887513,0.46310230982239453,0.43471572962992844,0.5237743701113106,0.4994934509540961,0.5176459947517982,0.44542505303087,0.47204432892022713,0.5180890832006042,0.5268188780325679,0.5884751886917802,0.5040792452751337,0.6075171232650267,0.618195632513417,0.4799964504339778,0.6966548258538038,0.4177871227365368,0.3511335483550159,0.48241867549052697],[0.4664568898235273,0.27685692938545403,0.15424358956559547,0.20438107328447125,0.3501223517771254,0.29198477999582434,0.3074075408025699,0.3455255340196156,0.354479180366931,0.3055245160962308,0.17199239893787938,0.28077736804592013,0.4070738897196345,0.2771821496699914,0.32889523592162756,0.43135490600429055,0.32735202024392857,0.35312715746996526,0.3228775673482236,0.22658373429064213,0.261341078890557,0.24421517100563397,0.18672351274386548,0.15161425174559578,0.03345276134375161,0.21603500094249797,0.2298954212106923,0.1548337577574152,0.1133873873484013,0.12937844030912832,0.2236466493680294,0.17426918628004948,0.239719330388084,0.18841583081692348,0.411014198156501,0.2933955326501309,0.21954541327575638,0.37839062145893726,0.18488903138730658,0.2941226207620843,0.27077116040318844,0.155271191223028,0,0.03751449228061593,0.3511809836145191,0.23772869262295615,0.202388641986425,0.11842023986284361,0.3930908414741494,0.18926267206630878,0.1445003175696375,0.07505139507932573,0.1653195824998823,0.2657808854091192,0.1708429452779142,0.20597748315943346,0.2716537406373355,0.6419414916892057,0.6409709120857697,0.5099239529257481,0.6013397707942161,0.38904477715831776,0.2845030344780921,0.08483326103916326,0.360207423371584,0.18891442081442225,0.12089953022516238,0.2687595200643754,0.25453895444835944,0.21787295072059942,0.3155749859877348,0.26399222431750147,0.32738832810629775,0.2870595791246282,0.3782395115975024,0.3455599591652022,0.3718189581598211,0.29720520358280017,0.3163945801353906,0.37124208335089526,0.3931938905912128,0.428608531108901,0.38983408067130254,0.4491601409429258,0.45935465564045114,0.3487741405948909,0.543144850513418,0.2647985897352543,0.1958488010221707,0.34553930448364367],[0.5030352566663346,0.31866945219498877,0.1966644181103979,0.2468070548739315,0.3920710353648816,0.3337962520340704,0.3479135057125904,0.38693219493866743,0.3955145233374844,0.347947697886776,0.20360721539183768,0.3225166748847386,0.44837300234307986,0.31869927813033255,0.3700663677042306,0.4729389215605442,0.3690418432059885,0.3951709051473149,0.34889691753887486,0.2682300033353636,0.2918140631466166,0.25923023565183184,0.220585740931945,0.17436342492374882,0.026309801341601175,0.24471830260074484,0.24116497514650878,0.19672425974382945,0.08287613077722662,0.08977846338346493,0.22996734248422426,0.165050060032514,0.23980808467115092,0.16931239307158444,0.3865872072665633,0.2798298610646168,0.20266780372661533,0.3549957739692587,0.22717708749879864,0.2642881720917514,0.25361661616681036,0.14133381812642512,0.03751449228061593,0,0.30980873267350806,0.22956635731475636,0.21088596836968126,0.11308104369990987,0.3567079746093582,0.15153715654739644,0.10564877153103877,0.03595010293020662,0.14113569755076388,0.2442926419833812,0.2107741269068528,0.1945586511161885,0.23388965701924316,0.6067996465476153,0.6055993434642344,0.4758135195689903,0.5711478000061634,0.3585714591659425,0.25070696068020254,0.042407683141490814,0.3282005870690827,0.15522599489646097,0.10353342153438136,0.26042419817605433,0.2607422874178557,0.21546639412674984,0.3444014162042972,0.30270582004060287,0.36636744830124873,0.3226492938299363,0.41401998640157955,0.3771611239536985,0.4075246115923934,0.33245431862227703,0.34681760113830506,0.40654058186001274,0.4322665303542231,0.4464258808447999,0.4315152688200969,0.4756629178675578,0.48500133074792257,0.3885299608317766,0.5741057436732239,0.29777172143743097,0.2280383904160709,0.38413892140383443],[0.8105885128292815,0.6328921458161899,0.5083279948125177,0.5577389718102165,0.7059854783910227,0.6356780063880973,0.6624603962884191,0.7015729679097007,0.6899644602981869,0.6574849857784291,0.5072361335197179,0.636848371791821,0.7630644471633151,0.6332627841739579,0.6847816679660068,0.7874479547953218,0.6834334286526831,0.6981905075918385,0.6314112254626681,0.5826767760271532,0.5889873217326516,0.5174243095784761,0.49123628313976436,0.41744448616923413,0.3319103173919047,0.491109822615659,0.4162774369158244,0.5026313223071565,0.24808827139287523,0.21787295072059942,0.38811271084737053,0.2994253093825203,0.36396811714331156,0.25505923213732334,0.2675223800661955,0.3036690985750428,0.26581653809351113,0.26024226156810204,0.5400852879496476,0.17508875038598265,0.27199378611805375,0.2803378454968641,0.3511809836145191,0.30980873267350806,0,0.41164026181851243,0.45887626584304675,0.36133573323935125,0.2643240224437222,0.22520377922425278,0.23814599419313237,0.28299843995831825,0.3070364861766721,0.3510725508765369,0.525164543249595,0.3787366904055617,0.20980988559620364,0.4637411673330923,0.4596248319504823,0.3721454621163738,0.49317778303581555,0.3368033956980512,0.25764515647619624,0.26418059237848185,0.30461378895084434,0.25498497051992575,0.326821472911152,0.4299589188501575,0.4895360970561195,0.4258614507409322,0.6350976762549608,0.6155724014126562,0.6793022457105997,0.6300902635993152,0.7205831773845706,0.6741162481871662,0.7139980318426153,0.6390440993330985,0.6416728616637933,0.7120958386197732,0.7451156339562995,0.6942845906459901,0.7459130434812683,0.753786984987898,0.7597930638584789,0.702385353494399,0.8645469366419657,0.6003519221167376,0.5315489224186914,0.6964381171338588],[0.4633754765363205,0.3844303059719216,0.31786311015344026,0.3558997048766039,0.44870823505979546,0.4547636079838524,0.3825728671534127,0.4307350195286692,0.5237059066198045,0.4410369303613179,0.21194558545874861,0.38567398731802416,0.4810253851915903,0.3776660111823755,0.41195294105741453,0.509150062657689,0.4222841705682815,0.5033154458733008,0.2524473259770247,0.3421839700393886,0.2460390311934924,0.13194133254653925,0.41148962881565215,0.3927997351338183,0.20493372433244614,0.4497496005934535,0.47196843884863643,0.33969329327814407,0.2996392994500865,0.27535433358498224,0.46339093403822107,0.3974801364323193,0.4742701259935988,0.3929695730492937,0.5880033100419151,0.5059483253009657,0.42735441069110697,0.5605793225860043,0.3303018098002724,0.4561472924974491,0.4758185388131603,0.37160754002064134,0.23772869262295615,0.22956635731475636,0.41164026181851243,0,0.08737822985092948,0.11444329128607247,0.27748136331351564,0.1839714966143277,0.19090840787197272,0.2065373731019021,0.10849296901761174,0.08140711555000278,0.27966033141114643,0.03288248364765472,0.21222357263238265,0.485144138971789,0.4862261593265906,0.3548817846380888,0.4116750155457354,0.22318166896052558,0.17962935833559274,0.22890684020792937,0.2126121578457149,0.15296496521961794,0.12318028962660452,0.02615485288637602,0.08320533787158466,0.030848651273665158,0.26879478475619467,0.32492491983339394,0.3760986830575225,0.307654665838389,0.3796224626560857,0.3139824467408637,0.3736080574666893,0.31155955270658237,0.28229359840757856,0.3689256823780933,0.4313659674012236,0.2812162154439354,0.4752208803617902,0.357554385188141,0.3600752294704246,0.40419402525262105,0.4767862738312016,0.26870661450476246,0.22498347720312606,0.3856554540228363],[0.3771548086412803,0.2943081487199881,0.24075280185689463,0.2733064527362661,0.3570481095905933,0.37052938367705024,0.29048562031871134,0.33866247251829673,0.4391826192362506,0.3527832940483471,0.12318028962660452,0.2952822987813453,0.38875067883981584,0.2870595791246282,0.3199197835486993,0.4168728066897916,0.3306687103704994,0.41591063685140445,0.17303954248999628,0.25428773313746056,0.155271191223028,0.05370492690928978,0.34879460637845283,0.34515352673358857,0.18050331827122604,0.3915358042705214,0.4327354139343261,0.2663240796428973,0.29492038122520564,0.2833251019344575,0.42954813413204807,0.37893789603631683,0.44700288934357163,0.38492577884436774,0.5972945189379658,0.49551210517269273,0.4184487671221504,0.5670240105357411,0.24808827139287523,0.46924866204177507,0.4693046351337594,0.35670797460935816,0.202388641986425,0.21088596836968126,0.45887626584304675,0.08737822985092948,0,0.10055556225215179,0.3633330813462407,0.23031636158819907,0.2186513926279056,0.20381539937130655,0.14857884776680103,0.16996209993983363,0.19471584327346825,0.0931581987134973,0.2810812571980656,0.5773346666449357,0.5783614992992528,0.446628986429483,0.5030542574285577,0.3145796351779465,0.25791153031398695,0.2288345926298248,0.30166082037987907,0.20325977943532478,0.13066594249916624,0.10625816688558573,0.047901733671020554,0.051779785303040164,0.18432884431593197,0.2328770940429642,0.2839355532377166,0.21586020097794725,0.291073152315731,0.2286073832945296,0.28486963604094007,0.22020020099468185,0.19596895240086298,0.28060840098139456,0.3401201446939302,0.23703159055200432,0.382996076066954,0.29063261281722524,0.2961170656205897,0.3120090703251428,0.4050130220057901,0.17710163418502767,0.13376285612222047,0.29385622724114924],[0.45134950113090094,0.3155749859877348,0.22186614032444124,0.2670348209840031,0.38692603710804946,0.36561932628628724,0.3283381845841179,0.3743086085747325,0.43358914620854844,0.36274289188153247,0.15418293571079036,0.3180723550919493,0.43181924345809347,0.31155955270658237,0.3556388020593508,0.45905832009302455,0.3610259596775977,0.42071674242505586,0.2652901839532755,0.26707030929690995,0.22584251136230013,0.15623235978663788,0.2983530941173617,0.2741118433440547,0.086220608382733,0.33384611498982647,0.3526753471859661,0.23772869262295615,0.1920142613950001,0.17794809131942038,0.34464999865236295,0.28296491520743355,0.35702144388927126,0.2839355532377166,0.49250882178395583,0.3960805487398412,0.3180051125769007,0.462648397512956,0.24207519680115477,0.3638961577430176,0.3681826901165868,0.2585991794894219,0.11842023986284361,0.11308104369990987,0.36133573323935125,0.11444329128607247,0.10055556225215179,0,0.31507015698048757,0.14088766824545593,0.11830279908757277,0.09917382988610429,0.07083652439906428,0.15227570955660133,0.2011745714479709,0.0833968085933092,0.20926981681745996,0.5528460359979842,0.552759508204156,0.4192231736953983,0.4978451875958069,0.2901505307109633,0.20224892004627618,0.12402517359957131,0.2669283282476471,0.12091870736876713,0.030236147473975433,0.1454982357073926,0.14596273820350922,0.09749114420841354,0.26921760720869825,0.2733064527362661,0.33411667164231623,0.27469926286374013,0.36165840993193765,0.3095019123691916,0.35510302507605185,0.282201169596397,0.2766941783973381,0.3522905213745407,0.3973901808607812,0.34237856180767134,0.4204785775999529,0.3890202773512777,0.3959902791251298,0.36053109633329417,0.49830571115994876,0.24059560144308811,0.17623790279145227,0.3484465268524048],[0.7448163867277707,0.6354632701755654,0.5363758302618531,0.5840999832326507,0.7062603512723223,0.6807501113031411,0.645486655391387,0.6924462693043191,0.7470113097566553,0.6819596039076372,0.4692028609605095,0.6378739780410976,0.7480919526302572,0.6311836691274171,0.6736185831035639,0.7758059073036877,0.680155130679257,0.7382609042764819,0.534840207859928,0.5870339675864464,0.5229750768898387,0.41395086519565366,0.5821837977715699,0.5294127142112439,0.