"trial_id","rt","stimulus","response","trial_type","trial_index","plugin_version","time_elapsed","language","participant_number","success","raw_payload","placements","dissimilarity_vector","n_words","trial_category","distance_matrix","value"
"consent_form","1789","
    <div style=""max-width:800px; margin:0 auto; text-align:left; font-size: 16px; padding: 10px 0;"">
      <h1>Informed Consent Form</h1>
      <p>You are being invited to participate in a research study titled <strong>""Reproducibility of Psychological Science and Instruction.""</strong> This study is being done by Dr. Bria Long from UC San Diego and associated graduate students in the Experimental Methods course. You were selected to participate in this study because you are an adult in the U.S. and have been a represented population in previous psychology studies.</p>
      
      <p>The purpose of this study is to better understand how well previously published studies in the psychological field replicate online and with different populations. Your participation in this research should last approximately <strong>5-30 minutes</strong>. If you agree to take part in this study, you may be asked to view a set of stimuli, including pictures, sounds, written text, or videos and then giving some responses via key-presses, verbally, or with paper-and-pencil. We may also observe your choices or preferences among an array of stimuli. These stimuli will be taken directly from or closely adapted from studies that already exist in the published psychological literature. Stimuli will include, e.g., pictures of objects and human faces, audio and video clips, short text passages, etc. None of the stimuli will be disturbing, threatening, or offensive. The online and in-person experiments described in this protocol will take no more than 30 minutes. An example game you might play would be to click on an image on the screen that matches a word you hear being said out loud. Your total expected time commitment for this study is between 5-30 minutes, and is specified in the study description.</p>
      
      <p>Your participation in this study is completely voluntary and you can withdraw at any time. Choosing not to participate or withdrawing will result in no penalty or loss of benefits to which you are entitled. You are free to skip any question that you choose.</p>
      
      <p>We will not be asking for any personally identifying information, and we will handle responses as confidentially as possible. Your SONA or Prolific IDs will never be tied to your responses on this survey. However, we cannot guarantee the confidentiality of information transmitted over the Internet. To minimize this risk, data containing anything that might be personally identifying (e.g. Prolific IDs or IP addresses) will be encrypted on transfer and storage and will only be accessible to qualified lab personnel. We will be keeping data collected as part of this experiment indefinitely. This anonymized data (containing neither Prolific IDs nor IP addresses) may be shared with the scientific community or with other participants to be used as stimuli in future studies.</p>
      
      <p>If you have questions about this project or if you have a research-related problem, you may contact the researcher(s), <strong>Dr. Bria Long, <a href=""mailto:brlong@ucsd.edu"">brlong@ucsd.edu</a></strong>. If you have any questions concerning your rights as a research subject, you may contact the UC San Diego Office of IRB Administration at <a href=""mailto:irb@ucsd.edu"">irb@ucsd.edu</a> or 858-246-4777.</p>
      
      <h3 style=""margin-top: 25px;"">Consent Statement</h3>
      <p style=""font-weight: bold;"">By participating in this research you are indicating that you are at least 18 years old, have read this consent form, and agree to participate in this research study. Please keep this consent form for your records.</p>
    </div>
  ","0","html-button-response","0","2.1.0","1791","zh","1cqx6zgnrt_71uyep","","","","","","","",""
"","2508","
    <div style=""display:flex; align-items:center; justify-content:center; height:100vh; font-family:sans-serif;"">
      <div style=""max-width:900px; margin:0 auto; text-align:center;"">
        <h1 style= ""font-size: 24px;"">Welcome! Thank you for participating in the study.</h1>
        <p style=""font-size:18px; line-height:1.6;"">
          In this task, you will be presented with <strong>90 words</strong> arranged <strong>outside a circle</strong>.<br>
          Your job is to <strong>drag these words into the circle</strong> and <strong>rearrange them</strong> based on their <strong>meaning similarity</strong>.<br><br>
          Words that are <strong>similar in meaning</strong> should be placed <strong>closer together</strong>.<br>
          Words that are <strong>different in meaning</strong> should be placed <strong>farther apart</strong>.<br><br>
          You can place the words <strong>anywhere inside the circle</strong>. There is no single correct answer — 
          we are interested in <strong>your personal judgment</strong> of how these words relate to each other.<br><br>
          <strong>You must move all words into the circle before you can finish.</strong><br>
          After the initial arrangement, you will arrange words from specific categories.
        </p>
        <p style=""font-size:16px; margin-top:30px;""><em>Press any key to continue.</em></p>
      </div>
    </div>
  ","Enter","html-keyboard-response","1","2.1.0","4301","zh","1cqx6zgnrt_71uyep","","","","","","","",""
"","1837","<p style='font-size:20px;'>Which is your first language or primary language of use?</p>","0","html-button-response","2","2.1.0","6140","zh","1cqx6zgnrt_71uyep","","","","","","","",""
"","916","","","fullscreen","3","2.1.0","8060","zh","1cqx6zgnrt_71uyep","true","{""placements"":[{""word"":""骄傲"",""x"":587,""y"":328.8,""cx"":606,""cy"":346.2,""angle_rad"":-0.015,""angle_deg"":359.2},{""word"":""冰箱"",""x"":635,""y"":354.8,""cx"":654,""cy"":372.2,""angle_rad"":0.073,""angle_deg"":4.2},{""word"":""兔子"",""x"":625,""y"":382.8,""cx"":644,""cy"":400.2,""angle_rad"":0.169,""angle_deg"":9.7},{""word"":""协议"",""x"":596,""y"":414.8,""cx"":615,""cy"":432.2,""angle_rad"":0.301,""angle_deg"":17.2},{""word"":""嘴唇"",""x"":547,""y"":426.8,""cx"":566,""cy"":444.2,""angle_rad"":0.411,""angle_deg"":23.6},{""word"":""剪刀"",""x"":531,""y"":469.8,""cx"":550,""cy"":487.2,""angle_rad"":0.601,""angle_deg"":34.4},{""word"":""长颈鹿"",""x"":514,""y"":482.8,""cx"":540,""cy"":500.2,""angle_rad"":0.669,""angle_deg"":38.3},{""word"":""制度"",""x"":494,""y"":496.8,""cx"":513,""cy"":514.2,""angle_rad"":0.789,""angle_deg"":45.2},{""word"":""过失"",""x"":451,""y"":447.8,""cx"":470,""cy"":465.2,""angle_rad"":0.765,""angle_deg"":43.8},{""word"":""友情"",""x"":420,""y"":418.8,""cx"":439,""cy"":436.2,""angle_rad"":0.769,""angle_deg"":44.1},{""word"":""方法"",""x"":524,""y"":423.8,""cx"":543,""cy"":441.2,""angle_rad"":0.441,""angle_deg"":25.3},{""word"":""蚂蚁"",""x"":480,""y"":474.8,""cx"":499,""cy"":492.2,""angle_rad"":0.762,""angle_deg"":43.7},{""word"":""沮丧"",""x"":505,""y"":403.8,""cx"":524,""cy"":421.2,""angle_rad"":0.388,""angle_deg"":22.3},{""word"":""沙发"",""x"":501,""y"":430.8,""cx"":520,""cy"":448.2,""angle_rad"":0.524,""angle_deg"":30},{""word"":""暴力"",""x"":488,""y"":501.8,""cx"":507,""cy"":519.2,""angle_rad"":0.823,""angle_deg"":47.1},{""word"":""筷子"",""x"":528,""y"":495.8,""cx"":547,""cy"":513.2,""angle_rad"":0.692,""angle_deg"":39.6},{""word"":""概念"",""x"":436,""y"":458.8,""cx"":455,""cy"":476.2,""angle_rad"":0.877,""angle_deg"":50.2},{""word"":""麻雀"",""x"":464,""y"":515.8,""cx"":483,""cy"":533.2,""angle_rad"":0.943,""angle_deg"":54},{""word"":""椅子"",""x"":461,""y"":550.8,""cx"":480,""cy"":568.2,""angle_rad"":1.033,""angle_deg"":59.2},{""word"":""买卖"",""x"":433,""y"":588.8,""cx"":452,""cy"":606.2,""angle_rad"":1.192,""angle_deg"":68.3},{""word"":""魔力"",""x"":411,""y"":543.8,""cx"":430,""cy"":561.2,""angle_rad"":1.209,""angle_deg"":69.3},{""word"":""结果"",""x"":367,""y"":586.8,""cx"":386,""cy"":604.2,""angle_rad"":1.43,""angle_deg"":81.9},{""word"":""敌意"",""x"":345,""y"":619.8,""cx"":364,""cy"":637.2,""angle_rad"":1.522,""angle_deg"":87.2},{""word"":""纠纷"",""x"":319,""y"":604.8,""cx"":338,""cy"":622.2,""angle_rad"":1.615,""angle_deg"":92.5},{""word"":""关系"",""x"":290,""y"":600.8,""cx"":309,""cy"":618.2,""angle_rad"":1.722,""angle_deg"":98.7},{""word"":""铅笔"",""x"":332,""y"":522.8,""cx"":351,""cy"":540.2,""angle_rad"":1.565,""angle_deg"":89.7},{""word"":""愤怒"",""x"":264,""y"":583.8,""cx"":283,""cy"":601.2,""angle_rad"":1.831,""angle_deg"":104.9},{""word"":""团队"",""x"":315,""y"":482.8,""cx"":334,""cy"":500.2,""angle_rad"":1.677,""angle_deg"":96.1},{""word"":""洗衣机"",""x"":254,""y"":523.8,""cx"":280,""cy"":541.2,""angle_rad"":1.922,""angle_deg"":110.1},{""word"":""大腿"",""x"":269,""y"":577.8,""cx"":288,""cy"":595.2,""angle_rad"":1.818,""angle_deg"":104.2},{""word"":""慈善"",""x"":236,""y"":603.8,""cx"":255,""cy"":621.2,""angle_rad"":1.908,""angle_deg"":109.3},{""word"":""手指"",""x"":241,""y"":519.8,""cx"":260,""cy"":537.2,""angle_rad"":2.019,""angle_deg"":115.7},{""word"":""性质"",""x"":189,""y"":572.8,""cx"":208,""cy"":590.2,""angle_rad"":2.105,""angle_deg"":120.6},{""word"":""猫"",""x"":190,""y"":539.8,""cx"":202,""cy"":557.2,""angle_rad"":2.191,""angle_deg"":125.5},{""word"":""眼睛"",""x"":170,""y"":542.8,""cx"":189,""cy"":560.2,""angle_rad"":2.224,""angle_deg"":127.4},{""word"":""床"",""x"":157,""y"":526.8,""cx"":169,""cy"":544.2,""angle_rad"":2.321,""angle_deg"":133},{""word"":""鼠标"",""x"":206,""y"":389.8,""cx"":225,""cy"":407.2,""angle_rad"":2.712,""angle_deg"":155.4},{""word"":""微波炉"",""x"":123,""y"":470.8,""cx"":149,""cy"":488.2,""angle_rad"":2.539,""angle_deg"":145.5},{""word"":""原因"",""x"":172,""y"":443.8,""cx"":191,""cy"":461.2,""angle_rad"":2.531,""angle_deg"":145},{""word"":""锤子"",""x"":159,""y"":409.8,""cx"":178,""cy"":427.2,""angle_rad"":2.72,""angle_deg"":155.8},{""word"":""勺子"",""x"":133,""y"":431.8,""cx"":152,""cy"":449.2,""angle_rad"":2.677,""angle_deg"":153.4},{""word"":""缘分"",""x"":88,""y"":385.8,""cx"":107,""cy"":403.2,""angle_rad"":2.926,""angle_deg"":167.6},{""word"":""胳膊"",""x"":95,""y"":381.8,""cx"":114,""cy"":399.2,""angle_rad"":2.936,""angle_deg"":168.2},{""word"":""老鼠"",""x"":53,""y"":363.8,""cx"":72,""cy"":381.2,""angle_rad"":3.03,""angle_deg"":173.6},{""word"":""兴奋"",""x"":119,""y"":334.8,""cx"":138,""cy"":352.2,""angle_rad"":3.131,""angle_deg"":179.4},{""word"":""耳朵"",""x"":172,""y"":328.8,""cx"":191,""cy"":346.2,""angle_rad"":-3.118,""angle_deg"":181.4},{""word"":""社会"",""x"":118,""y"":279.8,""cx"":137,""cy"":297.2,""angle_rad"":-2.899,""angle_deg"":193.9},{""word"":""牙刷"",""x"":117,""y"":247.8,""cx"":136,""cy"":265.2,""angle_rad"":-2.764,""angle_deg"":201.6},{""word"":""过程"",""x"":131,""y"":223.8,""cx"":150,""cy"":241.2,""angle_rad"":-2.643,""angle_deg"":208.5},{""word"":""光彩"",""x"":114,""y"":190.8,""cx"":133,""cy"":208.2,""angle_rad"":-2.563,""angle_deg"":213.2},{""word"":""空调"",""x"":180,""y"":179.8,""cx"":199,""cy"":197.2,""angle_rad"":-2.35,""angle_deg"":225.3},{""word"":""乌龟"",""x"":35,""y"":353.8,""cx"":54,""cy"":371.2,""angle_rad"":3.07,""angle_deg"":175.9},{""word"":""地位"",""x"":101,""y"":173.8,""cx"":120,""cy"":191.2,""angle_rad"":-2.537,""angle_deg"":214.6},{""word"":""创伤"",""x"":193,""y"":146.8,""cx"":212,""cy"":164.2,""angle_rad"":-2.21,""angle_deg"":233.4},{""word"":""死亡"",""x"":123,""y"":364.8,""cx"":142,""cy"":382.2,""angle_rad"":2.988,""angle_deg"":171.2},{""word"":""快乐"",""x"":169,""y"":145.8,""cx"":188,""cy"":163.2,""angle_rad"":-2.285,""angle_deg"":229.1},{""word"":""身份"",""x"":158,""y"":240.8,""cx"":177,""cy"":258.2,""angle_rad"":-2.654,""angle_deg"":208},{""word"":""婚姻"",""x"":208,""y"":116.8,""cx"":227,""cy"":134.2,""angle_rad"":-2.089,""angle_deg"":240.3},{""word"":""错误"",""x"":218,""y"":137.8,""cx"":237,""cy"":155.2,""angle_rad"":-2.096,""angle_deg"":239.9},{""word"":""脚踝"",""x"":122,""y"":166.8,""cx"":141,""cy"":184.2,""angle_rad"":-2.471,""angle_deg"":218.4},{""word"":""老虎"",""x"":151,""y"":97.8,""cx"":170,""cy"":115.2,""angle_rad"":-2.225,""angle_deg"":232.5},{""word"":""冷漠"",""x"":212,""y"":55.8,""cx"":231,""cy"":73.2,""angle_rad"":-1.977,""angle_deg"":246.7},{""word"":""疾病"",""x"":208,""y"":74.8,""cx"":227,""cy"":92.2,""angle_rad"":-2.016,""angle_deg"":244.5},{""word"":""扫帚"",""x"":209,""y"":131.8,""cx"":228,""cy"":149.2,""angle_rad"":-2.117,""angle_deg"":238.7},{""word"":""难过"",""x"":278,""y"":66.8,""cx"":297,""cy"":84.2,""angle_rad"":-1.768,""angle_deg"":258.7},{""word"":""钥匙"",""x"":278,""y"":90.8,""cx"":297,""cy"":108.2,""angle_rad"":-1.787,""angle_deg"":257.6},{""word"":""天堂"",""x"":310,""y"":98.8,""cx"":329,""cy"":116.2,""angle_rad"":-1.66,""angle_deg"":264.9},{""word"":""义务"",""x"":334,""y"":88.8,""cx"":353,""cy"":106.2,""angle_rad"":-1.558,""angle_deg"":270.7},{""word"":""数据"",""x"":359,""y"":41.8,""cx"":378,""cy"":59.2,""angle_rad"":-1.475,""angle_deg"":275.5},{""word"":""爱心"",""x"":216,""y"":74.8,""cx"":235,""cy"":92.2,""angle_rad"":-1.99,""angle_deg"":246},{""word"":""内容"",""x"":234,""y"":68.8,""cx"":253,""cy"":86.2,""angle_rad"":-1.923,""angle_deg"":249.8},{""word"":""现象"",""x"":339,""y"":124.8,""cx"":358,""cy"":142.2,""angle_rad"":-1.532,""angle_deg"":272.2},{""word"":""柜子"",""x"":340,""y"":92.8,""cx"":359,""cy"":110.2,""angle_rad"":-1.533,""angle_deg"":272.2},{""word"":""奇迹"",""x"":383,""y"":92.8,""cx"":402,""cy"":110.2,""angle_rad"":-1.357,""angle_deg"":282.2},{""word"":""恐惧"",""x"":424,""y"":103.8,""cx"":443,""cy"":121.2,""angle_rad"":-1.185,""angle_deg"":292.1},{""word"":""膝盖"",""x"":433,""y"":108.8,""cx"":452,""cy"":126.2,""angle_rad"":-1.143,""angle_deg"":294.5},{""word"":""舒心"",""x"":430,""y"":109.8,""cx"":449,""cy"":127.2,""angle_rad"":-1.153,""angle_deg"":294},{""word"":""债务"",""x"":491,""y"":115.8,""cx"":510,""cy"":133.2,""angle_rad"":-0.935,""angle_deg"":306.4},{""word"":""大象"",""x"":335,""y"":258.8,""cx"":354,""cy"":276.2,""angle_rad"":-1.517,""angle_deg"":273.1},{""word"":""作用"",""x"":440,""y"":240.8,""cx"":459,""cy"":258.2,""angle_rad"":-0.7,""angle_deg"":319.9},{""word"":""纪律"",""x"":520,""y"":174.8,""cx"":539,""cy"":192.2,""angle_rad"":-0.696,""angle_deg"":320.1},{""word"":""电视"",""x"":573,""y"":179.8,""cx"":592,""cy"":197.2,""angle_rad"":-0.563,""angle_deg"":327.7},{""word"":""肩膀"",""x"":475,""y"":222.8,""cx"":494,""cy"":240.2,""angle_rad"":-0.651,""angle_deg"":322.7},{""word"":""鼻子"",""x"":506,""y"":287.8,""cx"":525,""cy"":305.2,""angle_rad"":-0.251,""angle_deg"":345.6},{""word"":""斧头"",""x"":419,""y"":265.8,""cx"":438,""cy"":283.2,""angle_rad"":-0.649,""angle_deg"":322.8},{""word"":""风景"",""x"":549,""y"":270.8,""cx"":568,""cy"":288.2,""angle_rad"":-0.276,""angle_deg"":344.2},{""word"":""熊猫"",""x"":557,""y"":266.8,""cx"":576,""cy"":284.2,""angle_rad"":-0.283,""angle_deg"":343.8},{""word"":""骗局"",""x"":631,""y"":289.8,""cx"":650,""cy"":307.2,""angle_rad"":-0.142,""angle_deg"":351.9},{""word"":""桌子"",""x"":596,""y"":283.8,""cx"":615,""cy"":301.2,""angle_rad"":-0.182,""angle_deg"":349.6}],""n_words"":89,""words"":[""骄傲"",""冰箱"",""兔子"",""协议"",""嘴唇"",""剪刀"",""长颈鹿"",""制度"",""过失"",""友情"",""方法"",""蚂蚁"",""沮丧"",""沙发"",""暴力"",""筷子"",""概念"",""麻雀"",""椅子"",""买卖"",""魔力"",""结果"",""敌意"",""纠纷"",""关系"",""铅笔"",""愤怒"",""团队"",""洗衣机"",""大腿"",""慈善"",""手指"",""性质"",""猫"",""眼睛"",""床"",""鼠标"",""微波炉"",""原因"",""锤子"",""勺子"",""缘分"",""胳膊"",""老鼠"",""兴奋"",""耳朵"",""社会"",""牙刷"",""过程"",""光彩"",""空调"",""乌龟"",""地位"",""创伤"",""死亡"",""快乐"",""身份"",""婚姻"",""错误"",""脚踝"",""老虎"",""冷漠"",""疾病"",""扫帚"",""难过"",""钥匙"",""天堂"",""义务"",""数据"",""爱心"",""内容"",""现象"",""柜子"",""奇迹"",""恐惧"",""膝盖"",""舒心"",""债务"",""大象"",""作用"",""纪律"",""电视"",""肩膀"",""鼻子"",""斧头"",""风景"",""熊猫"",""骗局"",""桌子""],""distance_matrix"":[[0,0.08616584519695177,0.10533504884894948,0.1395810800124693,0.17205100163696094,0.24889690318506413,0.27542578995016503,0.3164359215980347,0.2974844695752551,0.31255586693763554,0.18569334876095686,0.2979847230645243,0.18089276549642883,0.21824053044681302,0.3286677402997918,0.29145822103384045,0.3285458326043177,0.3697206646310777,0.42239612132618615,0.5010116941480983,0.4602390362546647,0.5628006686978863,0.6288382859457419,0.6392774058359707,0.6694769285652865,0.5315428641368094,0.6842120793194852,0.5184110703989475,0.6311714169048643,0.6714128620985894,0.7418033065316664,0.656886825025387,0.776890436731658,0.7583616441203924,0.7800156046976525,0.7985429245576595,0.6411952144377202,0.7965148115622172,0.7162352000882235,0.7245426913427814,0.774707065931671,0.8362105258620821,0.823814343920199,0.891335674976362,0.77889770672424,0.6900320336639872,0.7847858890730937,0.7937932857797607,0.7787204854468218,0.8202515057221494,0.720889052669123,0.9205228956808831,0.8494027927304098,0.7218741592938382,0.7744676919665916,0.7592360530638739,0.7284555621118659,0.7223083411544582,0.6908733095607961,0.8197344676253125,0.8214136591435454,0.7718748654568316,0.7591332333374022,0.7088890907966681,0.6734839036428345,0.648198358882814,0.5979472915627857,0.5789883025065745,0.6088408119285318,0.7480355373568167,0.729266209214841,0.5327416412707079,0.5670861144953518,0.5173701215153224,0.46021793007864775,0.44464611638051793,0.44618456300531223,0.386154764665563,0.4329132285035302,0.2817594358373792,0.27609001401579947,0.24544995256471133,0.25307576582284674,0.14681220390029223,0.29532576157528523,0.1108800110252497,0.11010418671204528,0.09321445505726965,0.07159205375734289],[0.08616584519695177,0,0.04451766659834277,0.11460198799323759,0.18520768224110226,0.254489803329733,0.28189142881153506,0.3299890545694487,0.34013407497869824,0.3705543944144345,0.21368567193327745,0.3231371002190377,0.22747485057071754,0.25281486961412125,0.34301925380468523,0.2912689629780095,0.37091274057165696,0.38821828672778264,0.433834756357999,0.512643703588344,0.48575886963189474,0.5886120046756437,0.6529067637210583,0.669815909764595,0.7046470189961104,0.5751899047301695,0.7251905274628153,0.5721618798765633,0.6823428015974795,0.7127934330611005,0.7827223706703214,0.710396902293977,0.8264629572007787,0.8130038276501004,0.835073846246427,0.8569045606868783,0.7158771652373831,0.8628618906830515,0.7846579655227179,0.797543495343653,0.8456370054647264,0.9126679916151892,0.9005991584870422,0.9699562809856437,0.859906198916592,0.7716779771452907,0.8699998222871524,0.8809307663287208,0.8672098959793852,0.9098609006363154,0.8114946788172483,1,0.9394148664442453,0.8131736256923893,0.8527186530448839,0.8504138270207046,0.8164204531305336,0.8137650710688696,0.7823232753677958,0.910130803942744,0.9128743938699543,0.862617719515561,0.8502366541374105,0.8003429542095208,0.7632279872529575,0.7386383690686581,0.6878808425849148,0.6677356667784671,0.6938971350766874,0.8390596604965677,0.8199522073591202,0.6227686822516727,0.6557666698376197,0.6037803399988535,0.5441055934433173,0.5280251187894747,0.5299429405706959,0.4622127576707471,0.5224586001321473,0.3731595521636876,0.35258750288949475,0.3057711484392322,0.34223659815186497,0.23825428004112983,0.3861260778476515,0.1961237132629799,0.19172729043885456,0.10381481285281066,0.13042705469391586],[0.10533504884894948,0.04451766659834277,0,0.06705895207809934,0.14474965504101428,0.20930237521307843,0.2364378630931077,0.2856642387146825,0.305915508816531,0.34343407362290984,0.1773382573784979,0.2824236736839794,0.19881652121417,0.2174857542544499,0.2987474099165193,0.24422102048589878,0.3360135583817757,0.3445953597460367,0.38806844764257764,0.4665252881202147,0.44339967409082054,0.5457841170142278,0.6093342910141835,0.628118500095773,0.6643737161845111,0.5387836244238672,0.6869913261265046,0.5404605127669272,0.6487394041902266,0.6747978049862228,0.7443091577471844,0.6778126532423293,0.7915681563857287,0.7806016413249319,0.8028131852074099,0.82632962979346,0.6968319771925945,0.8370757760211877,0.7605512929395568,0.7767917327317743,0.8231233346702083,0.8944564607779362,0.8827155362667818,0.9536133169940634,0.8463080987105918,0.7590744729982382,0.8615302428258186,0.8753953944864782,0.864212485095486,0.9093208550788267,0.8142122287449698,0.9844370787813616,0.9399198986875077,0.8194809325639042,0.8363406202553296,0.8557577061012152,0.8125302651483886,0.8234282627176271,0.7906481476474266,0.9118954824395453,0.9213897016170617,0.8773201843050893,0.863301549011421,0.8087525388422329,0.7810515923002322,0.7545584482853132,0.7053189191937275,0.687791739792236,0.719315907713419,0.8525566823141685,0.8349201681010957,0.6400608732161837,0.675960842816914,0.6275509539165863,0.5708429256980487,0.5552792721734056,0.556814576732544,0.49523734025735205,0.5231496531719894,0.3854513313516747,0.38509194849321365,0.3458087774102859,0.3621663551726423,0.2498283980703609,0.3916383667373226,0.22148220085476011,0.21999184135086752,0.15084660480827794,0.16754579807869985],[0.1395810800124693,0.11460198799323759,0.06705895207809934,0,0.07922697840635044,0.13736487596226737,0.1643242821627841,0.21398032402208753,0.2438607359903346,0.28966488403606916,0.1162760706642232,0.21351895394012838,0.14828155058506126,0.15611536534840864,0.22706444318602356,0.1719005612564137,0.27273283351798144,0.27318178789914127,0.31577210096559294,0.39417630625829325,0.37258424395886985,0.4745634970801115,0.5376912577075879,0.5575008551299332,0.5946879242962031,0.47261435012031155,0.6188881523058394,0.47910515341551124,0.584956407372133,0.6068835535391043,0.675952601312678,0.6149742942368455,0.7262101376634652,0.7176810983035934,0.7399861926629107,0.7651742986564749,0.6494858270280126,0.7810997860638011,0.7067712138595763,0.7269408475694151,0.7709785299265133,0.8472388389562762,0.8359436026069039,0.9084994360153605,0.8050749903559544,0.7195773674340556,0.8269167852655557,0.8446417580937156,0.8369707930544881,0.8852394134979504,0.7952323581423582,0.9401945823190895,0.9171464386714406,0.8056013755414507,0.7916262821630878,0.8402706651722268,0.7843558415759789,0.8144074624543043,0.77988690396586,0.8910209629681911,0.9101323372569007,0.8754718931261332,0.8590751701939241,0.7979926934225747,0.7845477925301328,0.7553468129156676,0.708808506133542,0.6954512278786493,0.7351452938645457,0.8490397761385532,0.8337215162907319,0.643940247719241,0.683939240516122,0.6415663764299722,0.5901627272289934,0.5756056580773363,0.5765134796373432,0.5256670077584816,0.5041650647614254,0.3862515671593124,0.41650061581670444,0.390324266934671,0.37495039591520213,0.25550359368396947,0.38235337154715704,0.2484990147631322,0.2511399432314791,0.21219351697978836,0.21419146119970311],[0.17205100163696094,0.18520768224110226,0.14474965504101428,0.07922697840635044,0,0.0715737965009816,0.09814901859942755,0.1418116049849603,0.15935257124534868,0.20791123530107128,0.03356443574048772,0.13279534211700098,0.07493316490702268,0.07206523012546051,0.15458633656891915,0.11461369415565928,0.18825573886338448,0.19860323135268002,0.2475404175764758,0.32660190719547905,0.2952884065203867,0.3982142434612726,0.4628008524213021,0.47934560036907825,0.5147127484926184,0.38921220168597265,0.5369462594731268,0.39458017975608695,0.5007038756530497,0.5247647854403243,0.5942619920755571,0.5305588611065271,0.6424922676053938,0.6332938401015541,0.6555882882804375,0.6806505714312395,0.5693988379817582,0.6972616561701733,0.6236575274215787,0.6454173625263229,0.6884071254622774,0.7668158072724068,0.755769276260229,0.829099798683821,0.7281934398168515,0.6441131831825012,0.7545159604631838,0.7750956671957309,0.7702675930202945,0.8209517120294755,0.7359031766146483,0.8612306235077702,0.8538319878685696,0.7509347493115971,0.7126663674382457,0.7838668667743384,0.7171431114337304,0.7643741160275772,0.7284115627201403,0.8294698051508128,0.8573082031035336,0.8322245599888817,0.8135114018986452,0.7463791594919131,0.747670253804096,0.7158596481032675,0.6727142151343442,0.6640885976632281,0.7125666540491706,0.8042709004708908,0.7914571772174411,0.6091035931854399,0.6530773439549746,0.6181388676346278,0.5737978648085503,0.5607114979509437,0.5608553132454854,0.5241606823838785,0.44791604161985954,0.35423098486619975,0.41934292127576167,0.4108353444635724,0.3571666019924695,0.2375154703825665,0.33932043009590335,0.25610031535853645,0.2633038972851729,0.26395632058686325,0.24797306660485108],[0.24889690318506413,0.254489803329733,0.20930237521307843,0.13736487596226737,0.0715737965009816,0,0.022181780451112423,0.07144587409265692,0.13371722659683305,0.19937277784400206,0.07266166440518869,0.0805615417839802,0.1135555220076701,0.07714210200196782,0.0845087754359666,0.03855351967083613,0.15493711521981834,0.1308710248199784,0.17407351021993003,0.2529942640660805,0.2309167017086172,0.33224213137307923,0.39505727825341325,0.41581120812091055,0.45429450260846344,0.339747832889347,0.48112929352238076,0.3572634012951211,0.4560442241656337,0.46951454681416493,0.5375749191266176,0.48776423534336066,0.5931442367807498,0.5894527762978257,0.6117980416704188,0.6401696129183051,0.5554920650020783,0.6665771931780704,0.5977797375387689,0.6260409318787172,0.6645811893743967,0.7501715084727273,0.7399485244425744,0.8150442176873202,0.7211190303721288,0.640934622593058,0.7563960822111341,0.7817920223996424,0.7814995019691998,0.8353427153995675,0.7575598354470219,0.8481718534565397,0.8693613504848919,0.7780255347475342,0.7005783259544106,0.8086887384373246,0.7280441604493162,0.7963835069775067,0.7591993333204524,0.8475433738650616,0.8856869342085132,0.8703894141335901,0.8496211854326836,0.7768689023758432,0.7919591027038568,0.7582017174350498,0.7182400251097308,0.7133503017324293,0.7675535302970059,0.8411997528155957,0.8307887209726929,0.6562336316712839,0.7028039351394537,0.6732936318260624,0.6336014895029507,0.6214464885017641,0.6211687197355856,0.5916012601260252,0.4772238096861262,0.4075743155345395,0.4893161359495057,0.4856645331245052,0.41905193967658905,0.3025051408913734,0.38462785535991034,0.32948631166279885,0.33760549172276555,0.33970715067341667,0.32482515580808835],[0.27542578995016503,0.28189142881153506,0.2364378630931077,0.1643242821627841,0.09814901859942755,0.022181780451112423,0,0.04565980989718833,0.1258298426576896,0.1950406594486211,0.09368353260588047,0.06469240152344254,0.1297531664624246,0.088049397863292,0.05850256746533938,0.01944000649721764,0.14268681437791597,0.10505557481867632,0.1466460132275413,0.22553107847146162,0.20544798564210537,0.3060552941035938,0.3683971013675277,0.39009003417389065,0.42931416434053055,0.3183845262361003,0.4573627912859906,0.33985358420963735,0.435713412781772,0.44593266710226515,0.5134723118028108,0.467918472737702,0.5710426660574743,0.5690152528361553,0.5913307701352003,0.6206666314570889,0.5450041638735249,0.6501286127266644,0.5830890806299353,0.613440385182841,0.6503855505666148,0.7381721894335432,0.7282489333731578,0.8037852871993572,0.7124473708217807,0.6338475024026109,0.7507528299684321,0.7777889676221853,0.7791142561333112,0.8339774392231438,0.7590101987046317,0.8371890762887866,0.868341717047798,0.7814352756094703,0.6902399254561598,0.8111904513806583,0.7256726673478674,0.8015964108113439,0.764033010978296,0.8474890593911227,0.8893673009035191,0.8778162232528062,0.8562922260123917,0.7815512360575809,0.8019094708360651,0.76745363369033,0.7288227584903981,0.7254268349645691,0.7818722681461653,0.8481998116877423,0.8387337716410481,0.6675917488977805,0.7150884725101456,0.6878464178637259,0.650182149748853,0.6384493780483483,0.6379913264910093,0.6116592760435511,0.48253256262896116,0.4222812401241538,0.5107567914553524,0.5097984810149787,0.4370957538369593,0.32238834550337836,0.3964467439366171,0.35299124497141965,0.3616005892705104,0.3669067093884388,0.3510191737264098],[0.3164359215980347,0.3299890545694487,0.2856642387146825,0.21398032402208753,0.1418116049849603,0.07144587409265692,0.04565980989718833,0,0.10393052828491602,0.1748465507024042,0.1269384085683895,0.0383931831193773,0.151608838985623,0.10590451264124891,0.007787653749179131,0.0516930830791477,0.11088001102524978,0.054199387491827275,0.10073543523217147,0.17965228418770993,0.1545160884473852,0.25550359368396947,0.3184235521270614,0.33925525550173263,0.3783570426128742,0.26960536518028433,0.40671329461222433,0.2955311314639066,0.3877043148793079,0.39537269282890913,0.4626808931064546,0.4203498975571661,0.5213536943957866,0.5207376691439475,0.5430059097619822,0.5732595201582792,0.5094713765115528,0.6061356273644659,0.5414703383920897,0.5746117061127433,0.6092817634798582,0.6999178321779743,0.6904376677440396,0.7664666877334281,0.6791346512383233,0.603227000849751,0.7220768097477386,0.7517027832739027,0.7557121006242066,0.8121577425695022,0.7422897528782092,0.8002122736424726,0.8470297168695455,0.7681580833019583,0.6544829481234603,0.7961873854172399,0.7024510052062295,0.7915681563857287,0.7534196920889621,0.8278860349141656,0.876289057756169,0.8717476217137372,0.8488425984254693,0.7706023391237995,0.800954257739589,0.7652325938258687,0.7293636560288236,0.7289890838958928,0.7899000774370669,0.8413953948100455,0.8337616662263898,0.6699260939823979,0.7191124849108711,0.6966860263815444,0.6635347853306808,0.6527787995287962,0.6519250681929915,0.6330849935701353,0.4742708983471716,0.43306695100901677,0.5359668931429085,0.5420784167122663,0.4548896663551419,0.34545679821583475,0.4016296464725042,0.38441541152030234,0.3942606266096043,0.4106092884167555,0.39039167187427665],[0.2974844695752551,0.34013407497869824,0.305915508816531,0.2438607359903346,0.15935257124534868,0.13371722659683305,0.1258298426576896,0.10393052828491602,0,0.06582633196198255,0.12345335175364315,0.061090134854074794,0.11141039863614458,0.08318615741894443,0.1043793721835549,0.14672913127308096,0.025867627737574166,0.11069864276455998,0.16808904135333314,0.23286366791266758,0.1689530969161269,0.26681871653462974,0.33321795404874655,0.33837418876613357,0.3668350506159367,0.23038129523824827,0.3821179426508848,0.22999385510192674,0.3375686491699565,0.36944359104692437,0.4397687207048061,0.36666150378509005,0.48108312153344446,0.4694554191440929,0.491694212950391,0.5161063948882062,0.4165438743513531,0.5339143257302826,0.4622127576707471,0.48807159198542116,0.5281830080214668,0.611713876079621,0.601341872439757,0.676238935143309,0.5823037026940993,0.502909931226029,0.6196253081961783,0.6469750622565357,0.6491663421554422,0.7047992403156281,0.6332938401015541,0.7092800921361985,0.7394511253790566,0.658935536696745,0.5615862228777209,0.687003491230427,0.5957771222537156,0.6826958457445229,0.6444589160266725,0.7196354567880384,0.7670666394676153,0.7639436055011544,0.7405848617825807,0.6615822965555953,0.6957916649449404,0.6593854903139319,0.6253691450361976,0.6273424302538343,0.6921987266795142,0.7333536074960203,0.7264346065275784,0.5674979478082871,0.6179001675732012,0.6003159934522252,0.5728445075056597,0.5634945311443899,0.562110905314918,0.5549887421448229,0.3662575051925589,0.3420184317658989,0.4664955378967578,0.48807159198542116,0.3738265564395349,0.27817734614952894,0.30431930933797524,0.3336861792978965,0.34614442870523826,0.39599578273819913,0.3614819737081158],[0.31255586693763554,0.3705543944144345,0.34343407362290984,0.28966488403606916,0.20791123530107128,0.19937277784400206,0.1950406594486211,0.1748465507024042,0.06582633196198255,0,0.1691543622899212,0.13221475004348296,0.13931925821093735,0.13189795795758527,0.17447996613190953,0.21693693856914478,0.06688415220079455,0.17316346501610494,0.22628993862488153,0.2803673707418324,0.2046806500009769,0.2898599262533323,0.35415679914814513,0.3493251873407098,0.3694435910469244,0.22296282973421705,0.3751570568853437,0.20073300656558576,0.313952667195028,0.36209759234351224,0.43187739847789086,0.3390637337951996,0.4598650136488919,0.4405533192200368,0.4622697992325856,0.4819337142201761,0.3565348356892389,0.488344637233815,0.41233029534122606,0.4322657211093542,0.4760617320379733,0.5537071096167273,0.5427549754297023,0.6164750727829336,0.5182958094738517,0.4367402539587297,0.5517249571223407,0.5776438606477297,0.5788369369429596,0.6340736628536853,0.5621999541509897,0.6488960519825764,0.668629770995075,0.5882928613150595,0.5004819083205607,0.6160595574556635,0.525407875120367,0.6129297500409612,0.5745415088974073,0.6485913053396114,0.6964160373687751,0.6956775368236983,0.6717342884218082,0.5915401165918832,0.6306573616509653,0.5935545570180916,0.5616530726233732,0.5660822555016347,0.6345783927976789,0.664799071822734,0.658789711698211,0.5056506728286683,0.5571191381321708,0.5444197494937005,0.5225250868554566,0.5145615683375522,0.5127006112184448,0.5161279307510551,0.29826228545030725,0.29481639905451706,0.4365242751916781,0.47017037016720536,0.3357831812303491,0.2572629622298045,0.2510578260312451,0.32364954699622017,0.3375563674392347,0.4090674817884394,0.3663481599044014],[0.18569334876095686,0.21368567193327745,0.1773382573784979,0.1162760706642232,0.03356443574048772,0.07266166440518869,0.09368353260588047,0.1269384085683895,0.12345335175364315,0.1691543622899212,0,0.10755836432799651,0.04092220677763579,0.03498325083346029,0.1386382430106976,0.11552328044794641,0.15337904361933447,0.17873169061872524,0.23223221117071988,0.31041573817105816,0.2708738175171381,0.3738894906500835,0.439440607110147,0.4528997174557576,0.4862959565174593,0.3566434384063786,0.5062080355194849,0.3585657426651856,0.4661354113986088,0.4938219826559282,0.5637387864708345,0.4954055687140117,0.6090076339304903,0.5981985353748287,0.6204423548319334,0.6446662674591868,0.5305457637855568,0.6595269620588187,0.5854270690284181,0.6067069785790898,0.6499572648611042,0.7279867372160191,0.7169254722810291,0.7902371489618678,0.6894685968319395,0.6055775284253097,0.7164724948420929,0.7376565979389755,0.7335341115400541,0.784833855064928,0.7013395142238348,0.8223706985001598,0.8179631974585424,0.7178674552376733,0.6738084835214417,0.7501789403231284,0.6803148998387389,0.7328802874403473,0.6964760439036813,0.7941304715761905,0.8247145016698199,0.8030615295383703,0.7835324113844837,0.7143632820627168,0.7211113012117322,0.6883747503533366,0.646684488036848,0.6399847445217759,0.6918947883774363,0.7745990867728882,0.7627383542845706,0.5838138486810304,0.629218888356335,0.5975120199290127,0.5564298945975242,0.5440647144110043,0.54387560930476,0.5137076549646676,0.4150672477674033,0.3320757527989794,0.4119536957599982,0.4116844878179874,0.34133881379697756,0.22455608167930508,0.31255586693763554,0.25445197941061704,0.2635024014945565,0.2820135904611688,0.25847370299196104],[0.2979847230645243,0.3231371002190377,0.2824236736839794,0.21351895394012838,0.13279534211700098,0.0805615417839802,0.06469240152344254,0.0383931831193773,0.061090134854074794,0.13221475004348296,0.10755836432799651,0,0.12082087981867123,0.0763895175328422,0.041883986520137806,0.08248540490832071,0.07314628314102956,0.06844243576578093,0.12595823194071207,0.20130448555583,0.1581976520219503,0.2612738704049014,0.32664419556763513,0.3414157421642256,0.37668507784622907,0.25539054674219774,0.40007792478417276,0.2714830440330862,0.37070747986734165,0.388104128791725,0.4571412676592621,0.40218117049723257,0.5091768046409063,0.5041016926637939,0.5264542066904878,0.5544373227136479,0.47537014538356503,0.5811631561662424,0.513361365935607,0.5434511634929908,0.580545331482929,0.6682110028145858,0.6583203182142078,0.7339158748136261,0.6434471287370471,0.5657972212361926,0.6836316583497607,0.7120365719629622,0.714973504463491,0.7708953495858739,0.6996550542842892,0.7673682572650162,0.8056169541057434,0.7249426106099426,0.6206038421027364,0.7532439200669936,0.6616243909647823,0.7480187680123913,0.7099103523386481,0.7859682014910083,0.8330688103430808,0.8280561693244558,0.8051702498490171,0.7271248484672032,0.757499113783673,0.7216811063423334,0.6860864540903814,0.6861595370222558,0.7479852282036,0.7977095706012294,0.7900801019930679,0.6269229564282681,0.676370731864881,0.6550528544902711,0.6233517099976574,0.6129683460914358,0.611968612389665,0.596486609480922,0.43059122520542403,0.3924543866486952,0.5017984151690067,0.5129525556093157,0.4170094546807988,0.3110331182823834,0.3594903914551692,0.3555248208769419,0.3663179441243373,0.39481178390146277,0.3691175801406086],[0.18089276549642883,0.22747485057071754,0.19881652121417,0.14828155058506126,0.07493316490702268,0.1135555220076701,0.1297531664624246,0.151608838985623,0.11141039863614458,0.13931925821093735,0.04092220677763579,0.12082087981867123,0,0.040433732436318245,0.16135231645381887,0.1535912029438757,0.14254447070327297,0.19453556687160625,0.2517959366040047,0.3273158583236335,0.2772399550146598,0.3787263834255382,0.44508264702011124,0.4535456384968591,0.48328583673051706,0.3465156691042876,0.49869151031651887,0.3394670278854796,0.45028839067994064,0.4859732034152837,0.5563324332835454,0.4778488330431904,0.5951205677130661,0.5803584189689338,0.6023914278344451,0.624192907864749,0.4962234749693094,0.6329618520214887,0.5566522430135448,0.574510038421377,0.6197488315416324,0.6940336324053246,0.6826427986550367,0.7549850421251642,0.6516943705284783,0.5666175390024671,0.6755898763682875,0.6953711010007699,0.6901349781442413,0.7407203428060994,0.6560468865032382,0.7866278238922007,0.7736103823653081,0.6719685224358805,0.6380676910640973,0.7044868548421707,0.6370480219097963,0.6866992994747448,0.6503427345857091,0.7493405380972601,0.7787043724351412,0.7569192544392095,0.7373259022911522,0.6682422631614618,0.6754929796251221,0.6425312690793702,0.6012446852288249,0.5952351075422774,0.6487029191811111,0.7284115627201403,0.7166552753064718,0.5386494564704306,0.5845758003732312,0.5544398303945967,0.5153493825416201,0.5034813319224649,0.5030728596665129,0.4778139693252385,0.36907259083931293,0.2887211516930737,0.3792122019307681,0.3869249370024089,0.30210358247527275,0.18906625842463645,0.2671434910125358,0.22942046605341299,0.24022309853116344,0.2793977497884467,0.24703472280319966],[0.21824053044681302,0.25281486961412125,0.2174857542544499,0.15611536534840864,0.07206523012546051,0.07714210200196782,0.088049397863292,0.10590451264124891,0.08318615741894443,0.13189795795758527,0.03498325083346029,0.0763895175328422,0.040433732436318245,0,0.11563939932219787,0.11263075939045,0.113283585341635,0.15002641998813276,0.2066368326482959,0.28290623695298805,0.23674541199866792,0.33926747667716883,0.4053072936753213,0.416580474262305,0.44869892689230045,0.3170983754149298,0.4673515947009163,0.31829344752037925,0.4259552786414071,0.4548774656009459,0.524947470442528,0.4551458075125683,0.5690519121671844,0.557939634468154,0.5801786391247447,0.6043999440843648,0.49372354486767084,0.6199127430172651,0.5463696303997889,0.5688001376098821,0.6112860463946284,0.6907765238304018,0.679888933472045,0.7536712527636957,0.6546424864385864,0.5718239114976323,0.6844888799968911,0.7074174788498832,0.7050581392943261,0.7576849436359423,0.6774365252702145,0.7860693083336526,0.7913091809425621,0.6966520334801598,0.6376202838280857,0.7278125258939636,0.6516772785899797,0.7142774585139533,0.677222677111231,0.7685862493260627,0.8041391199611625,0.7879489621519997,0.767221097027362,0.6949402619456259,0.7099339026986446,0.6759690842214502,0.6364511908428491,0.6323876107599528,0.6885366107914568,0.7587732553341876,0.7483633962096137,0.5748198272199421,0.6219837560523599,0.5945381804105189,0.5575731775347257,0.5461100446647006,0.5455344483080081,0.5227484209270405,0.3952115119693402,0.32904998966523846,0.4248080653520697,0.43221118419462273,0.3459167003092404,0.2344438154958579,0.3034158311302252,0.2745845169096334,0.2850605962069249,0.3160342992464059,0.28795632102375684],[0.3286677402997918,0.34301925380468523,0.2987474099165193,0.22706444318602356,0.15458633656891915,0.0845087754359666,0.05850256746533938,0.007787653749179131,0.1043793721835549,0.17447996613190953,0.1386382430106976,0.041883986520137806,0.16135231645381887,0.11563939932219787,0,0.06247119730749921,0.10775718719898215,0.041255059822641056,0.08843953655632363,0.16715555672648122,0.1416588625839453,0.2424596850499166,0.30533766478022345,0.32630573758934167,0.36560716468192717,0.2584364504303005,0.3943695140675276,0.2863051422385054,0.37682101437052873,0.38310217116098594,0.45020211581011627,0.40964633062750666,0.5096049692858402,0.5096785668215963,0.5319192390489222,0.5625658971015053,0.5030921866944434,0.5967734341744544,0.5330024585925343,0.567086114495352,0.6009553453919374,0.6925125901326306,0.6831832794445706,0.7593388589643173,0.6733287947668405,0.5983101657234299,0.7176616833604098,0.7480355373568168,0.7528200494628385,0.8096831115116656,0.7412808222497687,0.7931817736004156,0.8446797408131655,0.7680655247498416,0.6479169241719515,0.7956110005957219,0.6996470897886884,0.7923234610952141,0.7540465890283433,0.826025765962409,0.8761855602894175,0.8734855560066647,0.8502366541374106,0.7711285936476611,0.8040281302574227,0.768012888475495,0.7328574691695018,0.7332224769003888,0.7951622195141486,0.8429605610786319,0.8358017651735502,0.6739076871735485,0.7234648948101794,0.7022010719791434,0.6701152362786765,0.6595881867633562,0.6586459687701732,0.6414622121110081,0.47582839621274925,0.4393396003692319,0.5452056301421832,0.552691758735648,0.46267189491821864,0.3545236738771372,0.40667241097421786,0.39500819142728766,0.40506451078410616,0.42316011682061727,0.4023258219021804],[0.29145822103384045,0.2912689629780095,0.24422102048589878,0.1719005612564137,0.11461369415565928,0.03855351967083613,0.01944000649721764,0.0516930830791477,0.14672913127308096,0.21693693856914478,0.11552328044794641,0.08248540490832071,0.1535912029438757,0.11263075939045,0.06247119730749921,0,0.1608461884471948,0.10704727466005265,0.13993910627437237,0.21744794830889183,0.20659046674863296,0.304564019872521,0.36507697474068157,0.38964247677992925,0.43055258136786506,0.3261998986035575,0.46095908821542914,0.3522461228461256,0.44451195407064176,0.4498846068224849,0.5163378588187731,0.47724708087050466,0.5771620901183473,0.5774295219477195,0.5996759658298544,0.6301649793997267,0.5626919444436871,0.6628628822389436,0.597507362918701,0.6295285125613026,0.6651529797828885,0.7546083222626847,0.7449137321304146,0.8207206415943189,0.7311612374600513,0.6535462118745003,0.7711557105029349,0.7989828384373163,0.801018670140966,0.8562726762501156,0.7822911964311625,0.8543023916461393,0.8907594017586762,0.8052429859230186,0.7078919527700754,0.8347597783237145,0.7476031416415959,0.825789350617789,0.7881577342703466,0.8702611725846015,0.9132228790312831,0.9023437072978708,0.8807216752995755,0.8056429177145167,0.8266333826379786,0.7921474633345943,0.7535602803928063,0.7501343481240185,0.806369561567855,0.8726753744465633,0.8633209405769179,0.692323484191047,0.7397846455246824,0.7123026399621818,0.6742176052395485,0.6623690227962,0.6619610506385656,0.6344006855067372,0.506805907132744,0.44667861707616646,0.5327025077668491,0.5294995634804491,0.46065192181279857,0.34514852642542637,0.4211504751450779,0.3733264133915331,0.38145435004006956,0.38059324730844213,0.3677316772769687],[0.3285458326043177,0.37091274057165696,0.3360135583817757,0.27273283351798144,0.18825573886338448,0.15493711521981834,0.14268681437791597,0.11088001102524978,0.025867627737574166,0.06688415220079455,0.15337904361933447,0.07314628314102956,0.14254447070327297,0.113283585341635,0.10775718719898215,0.1608461884471948,0,0.10110544468605794,0.1544370223831806,0.2125739564096062,0.14315085253984156,0.23834071264349546,0.30456401987252113,0.3081804158180236,0.3359436389016391,0.19930418601320482,0.35095219933386235,0.20138599642139468,0.3074856133564725,0.3382802383743587,0.4086031416079065,0.3370360366883941,0.4505009269032253,0.4397971037789511,0.46207763146508257,0.4872515480646255,0.39703328444948593,0.5077971642138475,0.4377457066902348,0.46601927893047557,0.5043881820201577,0.5904643768908325,0.5804303154560744,0.6558622115887816,0.5650224871256088,0.4877528480844839,0.6061195575663895,0.6355253327297938,0.6398215813538813,0.6966280374998044,0.6291303965432762,0.6892261178311542,0.7316337569256559,0.6573021582595472,0.5422707059008707,0.6840166236841703,0.5866234281518279,0.6833850860775759,0.6448390098024337,0.7131354211126882,0.7653309569246382,0.767221097027362,0.7429559898696744,0.6616622736615401,0.7028396148902198,0.6657117320726816,0.6337574550978575,0.6377599956055054,0.7051944679998117,0.7362023268816246,0.7305930506436468,0.5774391568397071,0.6286766821343399,0.6143290198417156,0.5898420569385061,0.581146402071285,0.5795357742444116,0.5767378021839654,0.3701059806920217,0.3600210047710118,0.49091975932461335,0.5154814674657107,0.395481278150695,0.30428757343969465,0.3193241766530525,0.3622160092145549,0.37495039591520213,0.4270507527604896,0.39199182784659553],[0.3697206646310777,0.38821828672778264,0.3445953597460367,0.27318178789914127,0.19860323135268002,0.1308710248199784,0.10505557481867632,0.054199387491827275,0.11069864276455998,0.17316346501610494,0.17873169061872524,0.06844243576578093,0.19453556687160625,0.15002641998813276,0.041255059822641056,0.10704727466005265,0.10110544468605794,0,0.053558970305310094,0.1275843221784048,0.0951335333194568,0.19610977546456254,0.2594987451026569,0.27976235964742263,0.31916415220062566,0.21617771986472267,0.3486397706487236,0.2503999390449789,0.3350911142555586,0.33753999111386407,0.40418107371469497,0.3683971013675276,0.4652562619580144,0.46722982017984677,0.4893700521569802,0.5211297686199395,0.4757758800551363,0.5593732557167388,0.4985995949799702,0.5357100994653675,0.5668702739815877,0.661279138337489,0.652463048082155,0.7289145288907877,0.6474698167255103,0.5756733106957539,0.6964360401172177,0.7293120681492793,0.7367643272405666,0.794958782729315,0.7318280117003046,0.7630307100098056,0.8303235577863003,0.7617819391255355,0.6195556751866252,0.7875578088506108,0.6840227325116669,0.7889940411671319,0.7503479951732427,0.8134085406551312,0.8696453515019754,0.8735047228530946,0.8490677059678998,0.7670321094360419,0.8089939005384947,0.7719958637983415,0.7395057801529165,0.7425600726704444,0.8081384679333276,0.8424176350445374,0.8369757925400979,0.6824836328381579,0.7332604881648755,0.7163130102448622,0.6882513063862782,0.678603285335187,0.6773337220169577,0.66642466869255,0.4765047587804064,0.45721410905183296,0.5736984784817871,0.586549912369073,0.48596748906129716,0.3831419220537379,0.4203070258669025,0.42920111226553664,0.4400493182681551,0.4655276322996765,0.44193011621684103],[0.42239612132618615,0.433834756357999,0.38806844764257764,0.31577210096559294,0.2475404175764758,0.17407351021993003,0.1466460132275413,0.10073543523217147,0.16808904135333314,0.22628993862488153,0.23223221117071988,0.12595823194071207,0.2517959366040047,0.2066368326482959,0.08843953655632363,0.13993910627437237,0.1544370223831806,0.053558970305310094,0,0.07378782219427284,0.0792933769701881,0.16335331836472156,0.2208437913489265,0.24924454535424023,0.2932078718603078,0.21587330265397994,0.32937309043012764,0.2645551569036981,0.3328404163959348,0.31956190516139993,0.38200561077574435,0.3669519604531682,0.45192452011499384,0.460853710789601,0.4824548690249001,0.5173298370197156,0.4999849032424386,0.5652587080163874,0.5110423067013963,0.553134316755317,0.5793149262953302,0.6780776682315861,0.6701505646823647,0.7466853418018885,0.6724388186751017,0.6052925406271206,0.7271248484672033,0.762774904835898,0.7730930188169693,0.832464185727628,0.7744856925638458,0.7810872916679642,0.8680974707412978,0.806997065786205,0.6411040192421485,0.8312569812779746,0.7210030843296945,0.8364023246669124,0.7975732165976118,0.852936201969299,0.9144079618367764,0.923092159827867,0.8978928776959453,0.8139227177203324,0.8616711090861762,0.824179939295842,0.793167710342291,0.7974945402913879,0.8644836433432921,0.8916800093118464,0.887369428367302,0.737155772888924,0.788407127246294,0.7731272799938957,0.746209211835752,0.736754869477539,0.7354182209860509,0.7252731477182836,0.5275511703875878,0.5152954606968604,0.6323964152940508,0.6440180743774727,0.5447643483807314,0.4417606032724056,0.4773750523292651,0.48646438944975434,0.4969925456078973,0.5165880473054072,0.49599112366958686],[0.5010116941480983,0.512643703588344,0.4665252881202147,0.39417630625829325,0.32660190719547905,0.2529942640660805,0.22553107847146162,0.17965228418770993,0.23286366791266758,0.2803673707418324,0.31041573817105816,0.20130448555583,0.3273158583236335,0.28290623695298805,0.16715555672648122,0.21744794830889183,0.2125739564096062,0.1275843221784048,0.07378782219427284,0,0.07862702742523217,0.10533504884894948,0.15102628839492413,0.18758012987772393,0.23513952679934366,0.1968540981238367,0.2779841702273124,0.2604670246811249,0.30277863062772487,0.27010019589359163,0.32572956483147314,0.3365395517126259,0.40440039855850846,0.42154526826365235,0.4420462268908484,0.4801124952491078,0.500495784132655,0.5395158048600798,0.494959639622396,0.5430699052394938,0.5620218425013876,0.665389512286316,0.6587833707544966,0.734627593186841,0.6713858968221779,0.6119595164745324,0.7340222016087752,0.7736482247432005,0.7884495693106208,0.8493108212119079,0.8004910332317204,0.7691156864149754,0.8851590250422283,0.837400640407873,0.6355121903687864,0.8587519570042988,0.7378530559256878,0.8707932523151538,0.8318222367515018,0.873027024304185,0.9434002527597726,0.9614636712664119,0.9348036190325,0.8474363875064661,0.9070528653382371,0.8685794702248674,0.8411649304327584,0.8487127649135892,0.9195460090679539,0.9295092015184293,0.9275792446497407,0.7879241889322905,0.8402291642398939,0.8299589710067674,0.8074565822307677,0.7989392069392637,0.7972794523696479,0.7931466149906656,0.5714808779344713,0.5778918172101932,0.7035072875242988,0.7190136589357538,0.6119572424748057,0.5136454481851377,0.5363946120833367,0.5618510996824848,0.5728323681498968,0.5955599078291097,0.574127414467576],[0.4602390362546647,0.48575886963189474,0.44339967409082054,0.37258424395886985,0.2952884065203867,0.2309167017086172,0.20544798564210537,0.1545160884473852,0.1689530969161269,0.2046806500009769,0.2708738175171381,0.1581976520219503,0.2772399550146598,0.23674541199866792,0.1416588625839453,0.20659046674863296,0.14315085253984156,0.0951335333194568,0.0792933769701881,0.07862702742523217,0,0.09778201399062243,0.16335331836472156,0.17965228418770993,0.2188049443616257,0.13166244516830936,0.2499549067698703,0.1852739823750903,0.24825001742234573,0.2393468367109797,0.3046681897668558,0.2823602466599499,0.36982170808900866,0.3767732584002498,0.398499384396628,0.43293244676561604,0.42429866156612894,0.4811437213701601,0.42878418037289906,0.4729079624417018,0.4968695734560614,0.5971649741015512,0.5896792978371103,0.666079793895331,0.5963536443550183,0.5333309086005944,0.6555033277570457,0.6937104117520833,0.7071318547334974,0.7676443341903713,0.7170265271856112,0.7005524748728881,0.8034642756035079,0.7535602803928063,0.5628525524844392,0.7751442287486934,0.6560829663835518,0.7868723828541941,0.7479013721474729,0.790605822823604,0.859679043810315,0.8777129047846461,0.8509598792992171,0.7635110281700557,0.82439820414453,0.7857375585905434,0.7592599199513923,0.7678912668286734,0.8403005445823117,0.8457244259555571,0.8440205823353939,0.7070234845915345,0.7596563684917168,0.7518047581425598,0.732241109003788,0.7244734522984274,0.7225629406364128,0.7242329879277927,0.48890447642066565,0.5046965290385239,0.6393688594259355,0.6622554885774856,0.5431210962447737,0.4522099344011141,0.46068204511835154,0.5072305751112283,0.5193349216609565,0.5577177944737256,0.5293525645238742],[0.5628006686978863,0.5886120046756437,0.5457841170142278,0.4745634970801115,0.3982142434612726,0.33224213137307923,0.3060552941035938,0.25550359368396947,0.26681871653462974,0.2898599262533323,0.3738894906500835,0.2612738704049014,0.3787263834255382,0.33926747667716883,0.2424596850499166,0.304564019872521,0.23834071264349546,0.19610977546456254,0.16335331836472156,0.10533504884894948,0.09778201399062243,0,0.0611535331004286,0.08059423164699914,0.1258298426576896,0.11692091031307411,0.16735078766113057,0.18952069382037778,0.20130448555582992,0.15959109716944989,0.21603190553056778,0.23380479105869328,0.2938607662628465,0.31289130530569637,0.33290682717834336,0.37192620605926807,0.4209825773520086,0.43680693196037995,0.39985972448024754,0.4523081003027603,0.4649787656403628,0.5708429256980488,0.5653767817944804,0.639984744521776,0.5870975042249359,0.5365604243116779,0.6569991602150944,0.7004430944348825,0.7201445076594648,0.7820505627460669,0.7451625329595152,0.6742857682468759,0.817785860795198,0.7874710564138115,0.5474118333073809,0.8046522495023497,0.671976812420859,0.826025765962409,0.7873400245325493,0.8093868222474206,0.8903896401089425,0.9215184410064735,0.8929685248886708,0.8017077349560153,0.8786280447087291,0.8390197624969399,0.8179018160136717,0.8309280516173813,0.9079447526022644,0.8890848541751721,0.8907594017586762,0.7702006264603137,0.8236314857658747,0.8228301591218331,0.8095814895425508,0.8031865411667717,0.8008532765910883,0.8107502381703114,0.5468731837485732,0.587185166718905,0.7310678408864326,0.7590010162214479,0.6308603858847905,0.5471629002003895,0.5395467203960727,0.605694702569748,0.6182469281706763,0.6604974489219047,0.6310589338720736],[0.6288382859457419,0.6529067637210583,0.6093342910141835,0.5376912577075879,0.4628008524213021,0.39505727825341325,0.3683971013675277,0.3184235521270614,0.33321795404874655,0.35415679914814513,0.439440607110147,0.32664419556763513,0.44508264702011124,0.4053072936753213,0.30533766478022345,0.36507697474068157,0.30456401987252113,0.2594987451026569,0.2208437913489265,0.15102628839492413,0.16335331836472156,0.0611535331004286,0,0.044994386043268074,0.09219757658203803,0.15867771690852292,0.143217025347283,0.22968344304668603,0.20843069019302848,0.14019016521127942,0.1792876394603544,0.2364378630931077,0.26768392315920136,0.2974241981349505,0.31504118580343143,0.3566783395027164,0.4449735540360302,0.4329836913446307,0.40819599188536354,0.46472499667640776,0.469455419144093,0.5770536368225415,0.5730362755086772,0.6453461752060113,0.6041328314720971,0.5619253420059193,0.6796676541471849,0.7257398727474252,0.7488828349539376,0.8110683847862684,0.7820505627460669,0.6791079901966965,0.8464926802508214,0.8271259015056504,0.5611800030840265,0.8418660767550705,0.7028039351394538,0.868176215497181,0.8298530934204366,0.8406822441504114,0.9277582792106577,0.9655999967061302,0.9362552591189326,0.8435014861600323,0.9280260147007209,0.888119154123609,0.8696020352717406,0.8845803292547345,0.9634217531477618,0.9330775341473987,0.9364460585893464,0.8241325563934495,0.8777272111397341,0.8799799546267346,0.8693308590191442,0.8634825201238532,0.8609908534412456,0.873868813542038,0.5997873236120431,0.6493593382409331,0.7958790973963529,0.8250171548825745,0.6946274871193002,0.6129229387231009,0.6006473360990495,0.6720182608237782,0.6846170662023013,0.7263693833576622,0.6974054899399498],[0.6392774058359707,0.669815909764595,0.628118500095773,0.5575008551299332,0.47934560036907825,0.41581120812091055,0.39009003417389065,0.33925525550173263,0.33837418876613357,0.3493251873407098,0.4528997174557576,0.3414157421642256,0.4535456384968591,0.416580474262305,0.32630573758934167,0.38964247677992925,0.3081804158180236,0.27976235964742263,0.24924454535424023,0.18758012987772393,0.17965228418770993,0.08059423164699914,0.044994386043268074,0,0.04375100172108384,0.13380806998734426,0.09334260651976609,0.19922184545060903,0.16162162388618392,0.08991043291440946,0.1337777954503007,0.18799449293258047,0.21901779780624217,0.247257130940447,0.2651007622632902,0.3065643035682125,0.40165724042566514,0.38288527645391596,0.3599825804337933,0.4173284133290134,0.42030702586690244,0.5280303825169447,0.5242879192410458,0.596101629812766,0.5576779038562178,0.5186388371611207,0.634964352200772,0.6819671105364429,0.7065504036317493,0.7687385902495818,0.7439045881147424,0.629749580282928,0.8039587539625365,0.7905881868160426,0.5138780092784612,0.8037783477552485,0.6615759821650441,0.8332278496238733,0.7952481384868357,0.7993806485246342,0.8895994680980447,0.9318561499433671,0.9019802139468844,0.8083593108329117,0.898731697495842,0.8586414845772161,0.842636171467538,0.8596222457121819,0.9403831027347421,0.8993277183658924,0.9039892067737745,0.799637027102881,0.8532763183438697,0.8592310489275141,0.8523619497418188,0.8474149886239716,0.8446681810347534,0.8632239784198641,0.5750423857758479,0.6373953714149392,0.7899900948089488,0.8242679289343222,0.6860539703075025,0.6113611656366064,0.5868913277714589,0.6741680278483644,0.6873278151831724,0.7375507913488212,0.7050996334089987],[0.6694769285652865,0.7046470189961104,0.6643737161845111,0.5946879242962031,0.5147127484926184,0.45429450260846344,0.42931416434053055,0.3783570426128742,0.3668350506159367,0.3694435910469244,0.4862959565174593,0.37668507784622907,0.48328583673051706,0.44869892689230045,0.36560716468192717,0.43055258136786506,0.3359436389016391,0.31916415220062566,0.2932078718603078,0.23513952679934366,0.2188049443616257,0.1258298426576896,0.09219757658203803,0.04375100172108384,0,0.14313194060488174,0.0467499480532158,0.19679854264949379,0.13256136238311467,0.046884614069700216,0.08531786525488091,0.15331711036165144,0.17030915999246254,0.20106656163694772,0.21801436545192235,0.26002300722593946,0.37521608226139314,0.34011375721523024,0.323769003084991,0.38275869855778144,0.38119295209992765,0.48898399600552234,0.48601320203223713,0.5562749481693794,0.5245317044771183,0.4914738709782722,0.6048786118142141,0.6533608358210996,0.6802432413273019,0.7422728546456911,0.7237652982361437,0.5895235735455445,0.7770878073746338,0.7725446347511365,0.47910515341551135,0.7835484257784829,0.6371485322683037,0.8171973067185879,0.7797796372392114,0.7744460907013628,0.8690628093368559,0.9171510036216718,0.8866568412486774,0.7921421828016468,0.8896418164279223,0.8494405638799742,0.8364673595555921,0.8557169516444586,0.9384114279964798,0.8846907362386359,0.8909896422957507,0.7964517880452645,0.849965902473358,0.8599986664137305,0.8571584868288802,0.8531586010020208,0.8501578988553592,0.8743380764532755,0.572659961781341,0.6481446593273427,0.8058488662285117,0.8446417580937157,0.6998222879109743,0.6318855512123583,0.5961693107544813,0.697573258803691,0.7111496180607896,0.7679784006978851,0.7329183163243952],[0.5315428641368094,0.5751899047301695,0.5387836244238672,0.47261435012031155,0.38921220168597265,0.339747832889347,0.3183845262361003,0.26960536518028433,0.23038129523824827,0.22296282973421705,0.3566434384063786,0.25539054674219774,0.3465156691042876,0.3170983754149298,0.2584364504303005,0.3261998986035575,0.19930418601320482,0.21617771986472267,0.21587330265397994,0.1968540981238367,0.13166244516830936,0.11692091031307411,0.15867771690852292,0.13380806998734426,0.14313194060488174,0,0.1477597133002319,0.06752303379364973,0.11367356146702565,0.13482349570625757,0.20515472679977467,0.14725449390834103,0.2485211360387854,0.24597000965618795,0.26819249534134854,0.29971534408567985,0.30166491964174397,0.3441859346785127,0.29367772396149666,0.3409174293580959,0.3613326931696225,0.4635558903348898,0.456755624132522,0.5327468588561697,0.47071030190457636,0.41603447321159975,0.5372231664491851,0.5795669742953587,0.598349696521604,0.6601663766289756,0.6232981208273202,0.5672454898999346,0.6959358002322852,0.6663577977247802,0.4336845002215677,0.682875359398291,0.5498950256080518,0.7059724240685952,0.6674519730879438,0.6872224265588128,0.768675118508818,0.8025769267639165,0.7735455054397447,0.6814706383860474,0.7640658511973494,0.7241483256069159,0.7060671423046854,0.7218741592938384,0.8018833871381735,0.7700775377001812,0.7728964387061514,0.661651750906056,0.7152891354762074,0.720214159835307,0.7134577179518886,0.7087003904723852,0.7058954562131646,0.7268181546128596,0.43706085132213374,0.5006567157427952,0.6574186590816146,0.6970718304303528,0.5515334119804587,0.4846256326672266,0.44930759168984746,0.5518962838028878,0.5657505210291873,0.6298225157449452,0.5913684108686764],[0.6842120793194852,0.7251905274628153,0.6869913261265046,0.6188881523058394,0.5369462594731268,0.48112929352238076,0.4573627912859906,0.40671329461222433,0.3821179426508848,0.3751570568853437,0.5062080355194849,0.40007792478417276,0.49869151031651887,0.4673515947009163,0.3943695140675276,0.46095908821542914,0.35095219933386235,0.3486397706487236,0.32937309043012764,0.2779841702273124,0.2499549067698703,0.16735078766113057,0.143217025347283,0.09334260651976609,0.0467499480532158,0.1477597133002319,0,0.18427704573351814,0.09535690176583556,0.007787653749179131,0.052354230655875425,0.10864759702133175,0.12170811735002827,0.1491473612864823,0.1665276933142617,0.20825329710352128,0.3339634944132895,0.2883915627324788,0.27538578650567636,0.335206556432427,0.3309087973905337,0.4385655058398314,0.43598068496743364,0.5054418485387205,0.47748263843638167,0.44890911656620686,0.5597484817531616,0.6091881163041365,0.6377272533812216,0.6995037134776285,0.6860783332877454,0.5385049308856676,0.7339519516903938,0.7364937876253402,0.4311093657541147,0.745631849791462,0.5962136493113146,0.7827633377641169,0.7459364682396541,0.732781403171815,0.8307131705539957,0.8836428952495248,0.8526744822416967,0.7576113530683052,0.8612500614163066,0.8210536343274398,0.8109634960911806,0.8323234348594963,0.9166639482186554,0.8513122506544475,0.859044315862094,0.7739526988804817,0.8271663695491438,0.8411864873148562,0.8424424715661292,0.8394336125972589,0.8361805012227603,0.8662054621072844,0.5520801494204828,0.6406369850435898,0.8031466089978455,0.8468963129883178,0.6952949719785252,0.6353018759237072,0.5874314999678386,0.7039606292584455,0.7179606156982453,0.7825852044620925,0.7444252438898306],[0.5184110703989475,0.5721618798765633,0.5404605127669272,0.47910515341551124,0.39458017975608695,0.3572634012951211,0.33985358420963735,0.2955311314639066,0.22999385510192674,0.20073300656558576,0.3585657426651856,0.2714830440330862,0.3394670278854796,0.31829344752037925,0.2863051422385054,0.3522461228461256,0.20138599642139468,0.2503999390449789,0.2645551569036981,0.2604670246811249,0.1852739823750903,0.18952069382037778,0.22968344304668603,0.19922184545060903,0.19679854264949379,0.06752303379364973,0.18427704573351814,0,0.10830215584468203,0.17155168167019408,0.23682078885972688,0.13332288397094708,0.25413836908654297,0.23560610252001454,0.2576262360116932,0.2808190630543579,0.2347714601959391,0.3053195898328612,0.24304818484665203,0.28328100605355344,0.3113878992699364,0.40830799801320256,0.40029946838965524,0.4768396729787467,0.406205368208432,0.346814771419282,0.46865647363335866,0.5095695296831726,0.5270161556057463,0.5886521809421115,0.5504863102779103,0.5112352799535193,0.624467113939128,0.5936295566035126,0.3722944024847187,0.6100555196657875,0.4780260180589639,0.6336014895029507,0.595160308496339,0.6150987436169484,0.6958537268259352,0.7306578994966281,0.7014209505497545,0.6090327675650723,0.6944590119986128,0.6544148666999628,0.6381462280270019,0.6556137743077218,0.7372635260361822,0.6981401810140756,0.701508335193415,0.5958751933650884,0.6494858270280126,0.6580029724099051,0.6554544705094163,0.6517862320808022,0.6486900416330996,0.6766610066431701,0.3715055017514605,0.45106720625713365,0.614609853351341,0.6614833642336178,0.5062080355194848,0.45204116252712734,0.3978836451068155,0.523744298094997,0.5381925211550032,0.6150987436169484,0.5716220086333902],[0.6311714169048643,0.6823428015974795,0.6487394041902266,0.584956407372133,0.5007038756530497,0.4560442241656337,0.435713412781772,0.3877043148793079,0.3375686491699565,0.313952667195028,0.4661354113986088,0.37070747986734165,0.45028839067994064,0.4259552786414071,0.37682101437052873,0.44451195407064176,0.3074856133564725,0.3350911142555586,0.3328404163959348,0.30277863062772487,0.24825001742234573,0.20130448555582992,0.20843069019302848,0.16162162388618392,0.13256136238311467,0.11367356146702565,0.09535690176583556,0.10830215584468203,0,0.08616584519695177,0.13513368840614462,0.028875145934199466,0.14062366953566208,0.12811142739135403,0.15045958318187297,0.18074947480259965,0.2373940446575445,0.23147461142094117,0.19520874089308393,0.2510030666145454,0.258814054208782,0.36548604524852657,0.3607119530537569,0.4343841920825279,0.3907887731538159,0.35384427013242176,0.4685587323559088,0.5162948035391701,0.5425141753122507,0.6045863930080309,0.5868344388749009,0.46853207214469134,0.6394951311541748,0.6365561683833594,0.34745200872690474,0.6465273087581296,0.4992955062491207,0.682385666332528,0.645443246893839,0.6365933438119573,0.731873711266909,0.7831194836271007,0.7522217851120688,0.6572491965684479,0.7609324184477326,0.7207498711248288,0.7115041396813897,0.7337335647174096,0.8188135416093313,0.7507676821678304,0.7583928902509058,0.6758784232874542,0.7288705570053464,0.7452130313269438,0.7495469718204557,0.7473868506344679,0.7439251964772712,0.7794416512133415,0.4556942021820273,0.5557548153060246,0.722881064807655,0.7728242867594913,0.6134948280604136,0.5646679722249859,0.5015990803068819,0.6369933901180239,0.6514977863817328,0.7282087488034463,0.6851702318822661],[0.6714128620985894,0.7127934330611005,0.6747978049862228,0.6068835535391043,0.5247647854403243,0.46951454681416493,0.44593266710226515,0.39537269282890913,0.36944359104692437,0.36209759234351224,0.4938219826559282,0.388104128791725,0.4859732034152837,0.4548774656009459,0.38310217116098594,0.4498846068224849,0.3382802383743587,0.33753999111386407,0.31956190516139993,0.27010019589359163,0.2393468367109797,0.15959109716944989,0.14019016521127942,0.08991043291440946,0.046884614069700216,0.13482349570625757,0.007787653749179131,0.17155168167019408,0.08616584519695177,0,0.06509235210391429,0.10261182108658311,0.1290027584804288,0.152233791977106,0.17063657025617407,0.21162484216051036,0.3269104885283512,0.2886065539758388,0.2718681948758273,0.33115502814102404,0.3290122042583697,0.43680693196038006,0.433834756357999,0.5041512888890438,0.47316912587103044,0.44243826998505215,0.5544398303945967,0.6034483968663563,0.6313015195389454,0.693192143792748,0.678018100174363,0.5374482109775951,0.7277952939530796,0.7279809946453643,0.42737204151705255,0.7376547086677159,0.5891836698631383,0.7738374090627785,0.7368551156332371,0.7260508572947391,0.8228843959480522,0.8745088004924179,0.8436503041380592,0.7487041437242425,0.8510123344530464,0.8108069977362574,0.800198333130652,0.8212251751434231,0.9053389179624459,0.8421410726067036,0.8495423734483639,0.7627091125910745,0.8159779159683608,0.8294630792243474,0.8302698038370648,0.8271663695491438,0.823936226954831,0.853510070216455,0.5405042334529386,0.6278746949295559,0.7901824507276078,0.8338218875278509,0.6823917896479984,0.6222164291356058,0.5747327158435903,0.690887423022273,0.7048921385919796,0.7697661082871033,0.7314718388229376],[0.7418033065316664,0.7827223706703214,0.7443091577471844,0.675952601312678,0.5942619920755571,0.5375749191266176,0.5134723118028108,0.4626808931064546,0.4397687207048061,0.43187739847789086,0.5637387864708345,0.4571412676592621,0.5563324332835454,0.524947470442528,0.45020211581011627,0.5163378588187731,0.4086031416079065,0.40418107371469497,0.38200561077574435,0.32572956483147314,0.3046681897668558,0.21603190553056778,0.1792876394603544,0.1337777954503007,0.08531786525488091,0.20515472679977467,0.052354230655875425,0.23682078885972688,0.13513368840614462,0.06509235210391429,0,0.1356923065974056,0.08903659938822789,0.133929102304595,0.14528192406886695,0.18811064580012418,0.35676363913046244,0.2796589366929997,0.2834317497761241,0.34441479012704784,0.3306080678747989,0.43618103292090554,0.43534405610633287,0.5003819912337216,0.48619601139922247,0.46777607514588415,0.5724437740892043,0.6236195873555386,0.6552483806203668,0.7162410361410335,0.7112808702671546,0.5321700092317918,0.7498369995023197,0.7637848395552896,0.43764748234172984,0.7702458747695503,0.6167887834898576,0.8120152120830819,0.7760645284195109,0.7513967762130106,0.8543807672509267,0.9137529954050909,0.8822791688731471,0.7868280842946048,0.8971901550403504,0.857106405510451,0.8498625019515484,0.873065377590118,0.958618115421118,0.8816716918942616,0.89109769399061,0.8156086677855764,0.8684316853178703,0.8856018595506292,0.8897108242276843,0.8873395520366046,0.8839333844960661,0.9172422978827207,0.5960759557388513,0.6923697595303229,0.8567222086101182,0.9021720328380544,0.7482684063340183,0.6911031217603574,0.638695718588648,0.7604193206811793,0.7745000927424752,0.8401561176511299,0.8017268672468604],[0.656886825025387,0.710396902293977,0.6778126532423293,0.6149742942368455,0.5305588611065271,0.48776423534336066,0.467918472737702,0.4203498975571661,0.36666150378509005,0.3390637337951996,0.4954055687140117,0.40218117049723257,0.4778488330431904,0.4551458075125683,0.40964633062750666,0.47724708087050466,0.3370360366883941,0.3683971013675276,0.3669519604531682,0.3365395517126259,0.2823602466599499,0.23380479105869328,0.2364378630931077,0.18799449293258047,0.15331711036165144,0.14725449390834103,0.10864759702133175,0.13332288397094708,0.028875145934199466,0.10261182108658311,0.1356923065974056,0,0.11910641627886884,0.09749566007003226,0.11974788540172643,0.1476220917286084,0.22027203381665306,0.19799654411980008,0.1666909950747828,0.22458050699811424,0.22811917759660458,0.335470277409497,0.3313051821502438,0.4040165029582166,0.36600052997655425,0.33496325758797224,0.446554377599005,0.49555972849485075,0.5237867471585669,0.5855838729358348,0.5734657022692292,0.43797059012183487,0.6200811004755421,0.6248147158546422,0.3210964694794696,0.6328430858806242,0.48241170056352767,0.6721861009238016,0.635899776780725,0.618854420090586,0.7176616833604098,0.7736482247432005,0.7423442001404498,0.6470008848118247,0.756228370005055,0.7161573815396352,0.7094961317409869,0.7334600152162534,0.8196306808125204,0.7414725675730826,0.7504408663559811,0.6765869056809252,0.7291152366625612,0.7486613259950977,0.756167542166514,0.7547653115635203,0.7511296143431007,0.7907222106740128,0.4595027697215297,0.5688905936034919,0.7381117723014606,0.7909126268221494,0.6282182115297508,0.5848208442773164,0.5143752323093242,0.6583012817456018,0.672946041209745,0.7533142337629875,0.7089441190003585],[0.776890436731658,0.8264629572007787,0.7915681563857287,0.7262101376634652,0.6424922676053938,0.5931442367807498,0.5710426660574743,0.5213536943957866,0.48108312153344446,0.4598650136488919,0.6090076339304903,0.5091768046409063,0.5951205677130661,0.5690519121671844,0.5096049692858402,0.5771620901183473,0.4505009269032253,0.4652562619580144,0.45192452011499384,0.40440039855850846,0.36982170808900866,0.2938607662628465,0.26768392315920136,0.21901779780624217,0.17030915999246254,0.2485211360387854,0.12170811735002827,0.25413836908654297,0.14062366953566208,0.1290027584804288,0.08903659938822789,0.11910641627886884,0,0.05089942952511539,0.054199387491827275,0.09574660840852042,0.3026373579256549,0.19213294974724465,0.2127092068496809,0.27239437774188213,0.24889690318506422,0.3507985046016123,0.35137746987393875,0.41249159124231677,0.41035947169532383,0.40451344206552087,0.4998293151955983,0.5524401488697385,0.5874693883048915,0.6469599986271797,0.6533437871278176,0.44327452645861104,0.6792904950110119,0.7084939423729506,0.36032825409790054,0.7109223185631957,0.5533856139946944,0.7593902567315212,0.7251597826566575,0.6841530412707293,0.7931044226152745,0.8617892895553424,0.829705178445522,0.7343543743288076,0.8555164116177997,0.8159420241253728,0.8143543771893881,0.8412511546675503,0.9288723358226261,0.8303235577863003,0.8425103543461804,0.7862803494159308,0.8377953070617528,0.862142116217013,0.873635685117198,0.8730701716331097,0.8692554281943098,0.9124890721140267,0.5748972485745567,0.6920477805049056,0.8620272205419524,0.9153171185248926,0.7520105201479228,0.7089303623469062,0.637421578853515,0.7820131242293268,0.7965970848102348,0.8740619758795434,0.8310572894120781],[0.7583616441203924,0.8130038276501004,0.7806016413249319,0.7176810983035934,0.6332938401015541,0.5894527762978257,0.5690152528361553,0.5207376691439475,0.4694554191440929,0.4405533192200368,0.5981985353748287,0.5041016926637939,0.5803584189689338,0.557939634468154,0.5096785668215963,0.5774295219477195,0.4397971037789511,0.46722982017984677,0.460853710789601,0.42154526826365235,0.3767732584002498,0.31289130530569637,0.2974241981349505,0.247257130940447,0.20106656163694772,0.24597000965618795,0.1491473612864823,0.23560610252001454,0.12811142739135403,0.152233791977106,0.133929102304595,0.09749566007003226,0.05089942952511539,0,0.01705551075279755,0.05412857084167742,0.24896315738693026,0.14047931133063618,0.15660160473695933,0.21619673204876427,0.19410664008422332,0.29787362695772085,0.2977208033044071,0.3613097215377148,0.3545275747889299,0.34871114753549204,0.44373739847709387,0.49628784242856294,0.5312787214332532,0.5907682287421407,0.5979007534469443,0.3929622283795405,0.6231350923451726,0.6533842770538485,0.30466818976685583,0.6552632552392056,0.4974227112546837,0.7046727209893355,0.6707986169573936,0.6279633622140199,0.7372087062135569,0.8070955554765604,0.7749319745163331,0.6796901951257279,0.8030372194766113,0.763653422258357,0.7636242153643816,0.7915787250242426,0.8796738930471866,0.7757662688022463,0.7884725578146069,0.7375356748913945,0.7885008504440462,0.8151964864089408,0.8293890904561828,0.8295303360505216,0.8255663831076703,0.8727633001138022,0.5299822758220917,0.6553015027211359,0.8270601367386723,0.8839775810627792,0.7168244032346779,0.6811087844820503,0.6006010053691369,0.7557471442655194,0.770520927689366,0.8542876954246736,0.8088352994847167],[0.7800156046976525,0.835073846246427,0.8028131852074099,0.7399861926629107,0.6555882882804375,0.6117980416704188,0.5913307701352003,0.5430059097619822,0.491694212950391,0.4622697992325856,0.6204423548319334,0.5264542066904878,0.6023914278344451,0.5801786391247447,0.5319192390489222,0.5996759658298544,0.46207763146508257,0.4893700521569802,0.4824548690249001,0.4420462268908484,0.398499384396628,0.33290682717834336,0.31504118580343143,0.2651007622632902,0.21801436545192235,0.26819249534134854,0.1665276933142617,0.2576262360116932,0.15045958318187297,0.17063657025617407,0.14528192406886695,0.11974788540172643,0.054199387491827275,0.01705551075279755,0,0.03761522957286754,0.2580529753735927,0.13270383207477757,0.16060946697924058,0.21830331345908072,0.19074169167535004,0.29147241052252953,0.2922895265689564,0.3529990801207323,0.3535275571735127,0.3532732024869807,0.44388741669878884,0.4968863441590239,0.5331641018875496,0.5918927816264486,0.603137035706182,0.38385674379197204,0.6236753807784118,0.6593157991318866,0.30316110888497566,0.6598752343334366,0.5011003998689791,0.7112965405657797,0.6780263167668442,0.6298004149743054,0.7409761842994332,0.8136965195815827,0.7814138656577001,0.6864233833235057,0.812507952905893,0.7733436315467216,0.7747268604893828,0.8034851018415237,0.8918693368648518,0.7826119270247969,0.7960928096587024,0.7501343481240185,0.8006826245223573,0.8288709853256486,0.8444881584825156,0.8449637317083525,0.840932744594268,0.8897515990630717,0.5450220182931252,0.6734404767305406,0.845622159583666,0.9034595730617174,0.7353860056585918,0.7014368394704406,0.6187644586025984,0.7763249632718817,0.7911259093563339,0.8757794143631669,0.8300278682589949],[0.7985429245576595,0.8569045606868783,0.82632962979346,0.7651742986564749,0.6806505714312395,0.6401696129183051,0.6206666314570889,0.5732595201582792,0.5161063948882062,0.4819337142201761,0.6446662674591868,0.5544373227136479,0.624192907864749,0.6043999440843648,0.5625658971015053,0.6301649793997267,0.4872515480646255,0.5211297686199395,0.5173298370197156,0.4801124952491078,0.43293244676561604,0.37192620605926807,0.3566783395027164,0.3065643035682125,0.26002300722593946,0.29971534408567985,0.20825329710352128,0.2808190630543579,0.18074947480259965,0.21162484216051036,0.18811064580012418,0.1476220917286084,0.09574660840852042,0.05412857084167742,0.03761522957286754,0,0.24268053614000928,0.0943337135210009,0.1385699641898363,0.191313655172301,0.15640207621338417,0.25277680021410665,0.25453842599250454,0.3125072873170819,0.3205627785088261,0.32849116987409804,0.4120075165081732,0.46542327760549934,0.5033737257922657,0.5608900218091207,0.5782671624484671,0.3427612526514627,0.591822265282517,0.6354530464084339,0.2698758468718041,0.6338584829133507,0.4740806133999541,0.6884941260816673,0.6563524420629072,0.599701487131978,0.7134909160812002,0.7906675457728628,0.7582348084630944,0.6638641910847873,0.7947114321519962,0.7560477155436628,0.7602836588204702,0.7906939970002606,0.8795565149349427,0.7600562796332304,0.774878002369099,0.7389779111901219,0.7884973139205138,0.8200338449494523,0.8391328019331549,0.8404748201028943,0.8362755755725301,0.8894880981101407,0.5403293296890845,0.6771362963590136,0.8503596947540917,0.911394916377419,0.7403270035175021,0.7131295598318327,0.6226926924283332,0.7889940411671319,0.8038963102116198,0.8931325840566755,0.8456897887220827],[0.6411952144377202,0.7158771652373831,0.6968319771925945,0.6494858270280126,0.5693988379817582,0.5554920650020783,0.5450041638735249,0.5094713765115528,0.4165438743513531,0.3565348356892389,0.5305457637855568,0.47537014538356503,0.4962234749693094,0.49372354486767084,0.5030921866944434,0.5626919444436871,0.39703328444948593,0.4757758800551363,0.4999849032424386,0.500495784132655,0.42429866156612894,0.4209825773520086,0.4449735540360302,0.40165724042566514,0.37521608226139314,0.30166491964174397,0.3339634944132895,0.2347714601959391,0.2373940446575445,0.3269104885283512,0.35676363913046244,0.22027203381665306,0.3026373579256549,0.24896315738693026,0.2580529753735927,0.24268053614000928,0,0.18080227894686596,0.10161868112836571,0.08028317380120123,0.13581172278503698,0.1925235868106852,0.1811639616771235,0.2547274276950779,0.16715555672648122,0.11171068416042543,0.2307264741101902,0.2754907833921195,0.2999039635364535,0.36203263785225415,0.3492420571323199,0.2874916696643317,0.3971030537533735,0.4024291129146988,0.13993910627437237,0.40819599188536343,0.2569848251363168,0.4521240219556031,0.41740479476670966,0.39396542747186697,0.4925492315429795,0.5544072296659095,0.5224931742735226,0.42700854559163953,0.5491689565434472,0.5099946440480623,0.5124729431701432,0.5427319246795091,0.6316387805220653,0.5227484209270405,0.5345777162379237,0.4914908238304024,0.5406276611955735,0.5739917402538564,0.5972278764297222,0.5999473645291119,0.5954921582362441,0.6571072383552536,0.3027467360033108,0.4595027697215296,0.6323171701103725,0.7031586705226959,0.5252015362284019,0.525608846135243,0.4076525011423537,0.6030009093014773,0.6178641294330316,0.7262331632809842,0.6718503791224109],[0.7965148115622172,0.8628618906830515,0.8370757760211877,0.7810997860638011,0.6972616561701733,0.6665771931780704,0.6501286127266644,0.6061356273644659,0.5339143257302826,0.488344637233815,0.6595269620588187,0.5811631561662424,0.6329618520214887,0.6199127430172651,0.5967734341744544,0.6628628822389436,0.5077971642138475,0.5593732557167388,0.5652587080163874,0.5395158048600798,0.4811437213701601,0.43680693196037995,0.4329836913446307,0.38288527645391596,0.34011375721523024,0.3441859346785127,0.2883915627324788,0.3053195898328612,0.23147461142094117,0.2886065539758388,0.2796589366929997,0.19799654411980008,0.19213294974724465,0.14047931133063618,0.13270383207477757,0.0943337135210009,0.18080227894686596,0,0.07835900148643739,0.1078688715583289,0.06023896484122345,0.15355586273363686,0.15493711521981834,0.21557482092781582,0.22331306989533933,0.24281068950014906,0.31535213776157023,0.36897134513852947,0.4085522697980662,0.4646055285665551,0.48941545072147197,0.24721822365721047,0.49469020685945,0.5477291874140017,0.17269092620262608,0.5431441306382909,0.38291058708056364,0.6020541034630972,0.5717947250901784,0.5042284289771894,0.6206509347089794,0.7034756021551646,0.6709460036487989,0.577913478309401,0.7155929458399836,0.6779749614427788,0.6871170218938482,0.720289608813946,0.8094850230679594,0.6736637855465024,0.6904255626885262,0.6719768124208589,0.7192132347709217,0.7568087550183054,0.7825852044620925,0.7856577049937238,0.7811515464462127,0.8430151654961261,0.4888135812247901,0.6414513606963208,0.8150373734855837,0.8827613740155811,0.7065977258748087,0.6953410510590978,0.5883708899797626,0.7726095951485483,0.7875932152807259,0.8872263273921367,0.8360019993054953],[0.7162352000882235,0.7846579655227179,0.7605512929395568,0.7067712138595763,0.6236575274215787,0.5977797375387689,0.5830890806299353,0.5414703383920897,0.4622127576707471,0.41233029534122606,0.5854270690284181,0.513361365935607,0.5566522430135448,0.5463696303997889,0.5330024585925343,0.597507362918701,0.4377457066902348,0.4985995949799702,0.5110423067013963,0.494959639622396,0.42878418037289906,0.39985972448024754,0.40819599188536354,0.3599825804337933,0.323769003084991,0.29367772396149666,0.27538578650567636,0.24304818484665203,0.19520874089308393,0.2718681948758273,0.2834317497761241,0.1666909950747828,0.2127092068496809,0.15660160473695933,0.16060946697924058,0.1385699641898363,0.10161868112836571,0.07835900148643739,0,0.05569055730452519,0.06306920608307295,0.16573346785507234,0.1603385138988755,0.23495264280151817,0.19777548120331476,0.1873835416242505,0.2839951261754423,0.3357831812303491,0.36965703070658473,0.42959827972240217,0.43723533636874373,0.2693448388505737,0.46246488881462794,0.49356600400430567,0.15045958318187297,0.4940244222260688,0.3356349994288975,0.5458987229211211,0.5131637694048246,0.46631402089369756,0.5754896638259188,0.6482391675939868,0.6158946292576842,0.5211191031118355,0.6508563419614625,0.612241427544695,0.6172759627047569,0.6485075824542683,0.7375583494621821,0.6173390876564127,0.6315418087319182,0.5979961527207375,0.6466930995050414,0.6808817617954016,0.703782494588955,0.7062368142782823,0.7018319614770796,0.761311523506776,0.4078190211380272,0.5580094087597102,0.7316623270155687,0.799108483929052,0.6230680820758104,0.6123482473059029,0.5048148627526247,0.6896948342384774,0.7046727209893354,0.8058852046561507,0.7540096183251576],[0.7245426913427814,0.797543495343653,0.7767917327317743,0.7269408475694151,0.6454173625263229,0.6260409318787172,0.613440385182841,0.5746117061127433,0.48807159198542116,0.4322657211093542,0.6067069785790898,0.5434511634929908,0.574510038421377,0.5688001376098821,0.567086114495352,0.6295285125613026,0.46601927893047557,0.5357100994653675,0.553134316755317,0.5430699052394938,0.4729079624417018,0.4523081003027603,0.46472499667640776,0.4173284133290134,0.38275869855778144,0.3409174293580959,0.335206556432427,0.28328100605355344,0.2510030666145454,0.33115502814102404,0.34441479012704784,0.22458050699811424,0.27239437774188213,0.21619673204876427,0.21830331345908072,0.191313655172301,0.08028317380120123,0.1078688715583289,0.05569055730452519,0,0.05176692219031779,0.12027435115873784,0.11174666665253262,0.18830649574643107,0.1371186924202768,0.13215349242798452,0.22309192807101416,0.27510560259729805,0.30985505359024784,0.3693012303772587,0.3816684194987017,0.22266747328953665,0.401884819187655,0.43902380630901533,0.09125724194434606,0.43734950751972784,0.27786522723373386,0.492439262002574,0.46103434322641673,0.406539511121216,0.5176278687990938,0.5944375502382381,0.5619649339387037,0.4679629631984898,0.6030009093014773,0.5651627550766708,0.5739529703560047,0.6072686313250082,0.6964600426627461,0.5640593666476964,0.5797013554919832,0.5594826188418655,0.606314662263922,0.6450548732090482,0.6729377630715138,0.6766857051747098,0.6720679955594318,0.7377227194066551,0.38324670036817077,0.5441055934433173,0.7164219303708487,0.788214340970468,0.6099186425453896,0.6109854778633886,0.492681726669986,0.6884071254622774,0.7032854601863441,0.8106934746562273,0.7567203439447424],[0.774707065931671,0.8456370054647264,0.8231233346702083,0.7709785299265133,0.6884071254622774,0.6645811893743967,0.6503855505666148,0.6092817634798582,0.5281830080214668,0.4760617320379733,0.6499572648611042,0.580545331482929,0.6197488315416324,0.6112860463946284,0.6009553453919374,0.6651529797828885,0.5043881820201577,0.5668702739815877,0.5793149262953302,0.5620218425013876,0.4968695734560614,0.4649787656403628,0.469455419144093,0.42030702586690244,0.38119295209992765,0.3613326931696225,0.3309087973905337,0.3113878992699364,0.258814054208782,0.3290122042583697,0.3306080678747989,0.22811917759660458,0.24889690318506422,0.19410664008422332,0.19074169167535004,0.15640207621338417,0.13581172278503698,0.06023896484122345,0.06306920608307295,0.05176692219031779,0,0.10252073015568215,0.09992483837619015,0.17062061316117227,0.15890867529656283,0.17923440190178053,0.25061393782610086,0.3041560614747879,0.34322068431279995,0.3997488475637787,0.4242071661656561,0.20456029134554918,0.4302916457921049,0.48268503632342963,0.10820326526126546,0.47767448928682493,0.31745083821398773,0.5372361025710505,0.5074715204104947,0.439090141676594,0.55512901682494,0.6384428367494487,0.6059106117435091,0.5132287409562477,0.6527468045925966,0.6155533373661649,0.6265609643482374,0.6608030701586779,0.7499317920864722,0.6088065278224017,0.6260098052438053,0.6141477693642802,0.6602127788472172,0.7004430944348824,0.729373208942325,0.7333060991000789,0.7286621326792785,0.7947745927606421,0.44031083991727354,0.6005036993028894,0.7730731827094709,0.8442684462669076,0.6662491182001007,0.6646168096196323,0.5487612329167557,0.7420869488716595,0.7570076424434411,0.8623556846402144,0.8091248955044282],[0.8362105258620821,0.9126679916151892,0.8944564607779362,0.8472388389562762,0.7668158072724068,0.7501715084727273,0.7381721894335432,0.6999178321779743,0.611713876079621,0.5537071096167273,0.7279867372160191,0.6682110028145858,0.6940336324053246,0.6907765238304018,0.6925125901326306,0.7546083222626847,0.5904643768908325,0.661279138337489,0.6780776682315861,0.665389512286316,0.5971649741015512,0.5708429256980488,0.5770536368225415,0.5280303825169447,0.48898399600552234,0.4635558903348898,0.4385655058398314,0.40830799801320256,0.36548604524852657,0.43680693196038006,0.43618103292090554,0.335470277409497,0.3507985046016123,0.29787362695772085,0.29147241052252953,0.25277680021410665,0.1925235868106852,0.15355586273363686,0.16573346785507234,0.12027435115873784,0.10252073015568215,0,0.008209892007744555,0.06396667104389275,0.09469933711243779,0.16478705555999124,0.17928003503495785,0.23097017562522276,0.275530771880052,0.32431453674634403,0.3727105155643325,0.09843356892766919,0.35057375443731653,0.43208604440147724,0.06308973380802357,0.4191048602610597,0.2644771232029307,0.4882223543945351,0.46385217991469785,0.36603077158522973,0.48865447438467663,0.585360533582533,0.5532247967867623,0.4660996813787215,0.6168068339679379,0.5826189347610512,0.6026385261589848,0.6408542522429287,0.7284402582748728,0.5581887886937313,0.5794589670268079,0.6014112823446098,0.6422170237801865,0.6913409176970561,0.7296692876744328,0.7360092183683501,0.7310430602152734,0.807461763265497,0.4600490462082119,0.6325548761257789,0.8002384114518853,0.87757936762478,0.6982858301767952,0.7140491960817521,0.5846114927111286,0.7907751086171962,0.805409215301309,0.918604552282012,0.8628408720259657],[0.823814343920199,0.9005991584870422,0.8827155362667818,0.8359436026069039,0.755769276260229,0.7399485244425744,0.7282489333731578,0.6904376677440396,0.601341872439757,0.5427549754297023,0.7169254722810291,0.6583203182142078,0.6826427986550367,0.679888933472045,0.6831832794445706,0.7449137321304146,0.5804303154560744,0.652463048082155,0.6701505646823647,0.6587833707544966,0.5896792978371103,0.5653767817944804,0.5730362755086772,0.5242879192410458,0.48601320203223713,0.456755624132522,0.43598068496743364,0.40029946838965524,0.3607119530537569,0.433834756357999,0.43534405610633287,0.3313051821502438,0.35137746987393875,0.2977208033044071,0.2922895265689564,0.25453842599250454,0.1811639616771235,0.15493711521981834,0.1603385138988755,0.11174666665253262,0.09992483837619015,0.008209892007744555,0,0.07126275702327026,0.08312268213262378,0.15132231563436557,0.16989302779546403,0.22222371972016897,0.26621453326254463,0.3163006483556116,0.36189504923565824,0.10563912664416861,0.34334953876387486,0.4213084362347366,0.049585270198906045,0.40910135485719695,0.25345576792398367,0.4773895923936931,0.4525288966231575,0.3577624755255655,0.47970460024868683,0.5750254549727379,0.5428164393576438,0.4550695899208078,0.6050833116999185,0.5706674868066419,0.5901839419651614,0.6282292896092257,0.7159355526117305,0.5475895740491027,0.568518899567585,0.5884630924542869,0.629504190411926,0.6783056221493066,0.7163810872500336,0.7226709256367521,0.717710219740839,0.7939882386648093,0.4465543775990049,0.6191601922079178,0.7867589735944719,0.8641656694582588,0.6848774346909623,0.7011110451647136,0.5713056331479429,0.7777817978057783,0.7924008878083247,0.9058998089796556,0.8500331881618881],[0.891335674976362,0.9699562809856437,0.9536133169940634,0.9084994360153605,0.829099798683821,0.8150442176873202,0.8037852871993572,0.7664666877334281,0.676238935143309,0.6164750727829336,0.7902371489618678,0.7339158748136261,0.7549850421251642,0.7536712527636957,0.7593388589643173,0.8207206415943189,0.6558622115887816,0.7289145288907877,0.7466853418018885,0.734627593186841,0.666079793895331,0.639984744521776,0.6453461752060113,0.596101629812766,0.5562749481693794,0.5327468588561697,0.5054418485387205,0.4768396729787467,0.4343841920825279,0.5041512888890438,0.5003819912337216,0.4040165029582166,0.41249159124231677,0.3613097215377148,0.3529990801207323,0.3125072873170819,0.2547274276950779,0.21557482092781582,0.23495264280151817,0.18830649574643107,0.17062061316117227,0.06396667104389275,0.07126275702327026,0,0.11548842301756113,0.2025305456855042,0.17265937900164682,0.21667783088766887,0.26322027266371606,0.30205335078447826,0.36929748331323836,0.02920217277545792,0.32304733980648664,0.4273850178665693,0.11199823502898819,0.4084505074138085,0.26566599040249833,0.48328583673051695,0.4635439151032098,0.34443485802196294,0.46966824430833126,0.575460661643161,0.544166906289327,0.4631215925862015,0.61899833150729,0.5874433403333263,0.6132157576580878,0.653463118715197,0.7389684815561883,0.5506277210403838,0.5745923422124294,0.6191849172317214,0.6560659878615305,0.7101615162131106,0.7537600189792186,0.7614579873208474,0.7563518540059975,0.8380400074957429,0.49888085877600236,0.6750804987574671,0.838808604189234,0.9188946839264063,0.740183919593257,0.7643084604963299,0.6295351457130437,0.8402291642398938,0.8546484966711748,0.9710423150164121,0.9143163861985849],[0.77889770672424,0.859906198916592,0.8463080987105918,0.8050749903559544,0.7281934398168515,0.7211190303721288,0.7124473708217807,0.6791346512383233,0.5823037026940993,0.5182958094738517,0.6894685968319395,0.6434471287370471,0.6516943705284783,0.6546424864385864,0.6733287947668405,0.7311612374600513,0.5650224871256088,0.6474698167255103,0.6724388186751017,0.6713858968221779,0.5963536443550183,0.5870975042249359,0.6041328314720971,0.5576779038562178,0.5245317044771183,0.47071030190457636,0.47748263843638167,0.406205368208432,0.3907887731538159,0.47316912587103044,0.48619601139922247,0.36600052997655425,0.41035947169532383,0.3545275747889299,0.3535275571735127,0.3205627785088261,0.16715555672648122,0.22331306989533933,0.19777548120331476,0.1371186924202768,0.15890867529656283,0.09469933711243779,0.08312268213262378,0.11548842301756113,0,0.08407007770412149,0.08686907373017305,0.14050819440557957,0.18176521222418213,0.23611829431567635,0.27379100569010095,0.13899860863633973,0.2661369766086643,0.3332179540487465,0.04541129922501692,0.32226410083751883,0.16521564911922412,0.38922643315605443,0.3641093163618321,0.2762296509704014,0.3953972146671935,0.48745098983700547,0.4551458075125683,0.36675583275737383,0.5168139209579152,0.48266202447914597,0.5033930413892034,0.5421066233534865,0.6292896729219998,0.45965977674044434,0.48025127494118947,0.5042835218907203,0.5438065952797587,0.594753425495446,0.6357530908437108,0.6429081623448907,0.6378516649657051,0.7179742005961874,0.3783570426128742,0.5551215030000282,0.7180828705953828,0.7984870452497993,0.6200002945526423,0.6478825421570847,0.5104738396006308,0.7231007785309105,0.7373599234947746,0.8558620287217821,0.7984678358404929],[0.6900320336639872,0.7716779771452907,0.7590744729982382,0.7195773674340556,0.6441131831825012,0.640934622593058,0.6338475024026109,0.603227000849751,0.502909931226029,0.4367402539587297,0.6055775284253097,0.5657972212361926,0.5666175390024671,0.5718239114976323,0.5983101657234299,0.6535462118745003,0.4877528480844839,0.5756733106957539,0.6052925406271206,0.6119595164745324,0.5333309086005944,0.5365604243116779,0.5619253420059193,0.5186388371611207,0.4914738709782722,0.41603447321159975,0.44890911656620686,0.346814771419282,0.35384427013242176,0.44243826998505215,0.46777607514588415,0.33496325758797224,0.40451344206552087,0.34871114753549204,0.3532732024869807,0.32849116987409804,0.11171068416042543,0.24281068950014906,0.1873835416242505,0.13215349242798452,0.17923440190178053,0.16478705555999124,0.15132231563436557,0.2025305456855042,0.08407007770412149,0,0.11687496320970699,0.15874618292287704,0.18356491139226622,0.24551152092380793,0.2447099496109485,0.22803497429537986,0.2803526296195809,0.3016649196417439,0.09657667428860477,0.3013583977482451,0.14399941016337564,0.3549914817291236,0.3238713595145617,0.2787659684158966,0.3833370038283416,0.45699555044233625,0.42453058045293834,0.3305453819977688,0.46824760316619746,0.43123157008766677,0.44410922683105425,0.4798550695261558,0.5686363026371107,0.4266154963950646,0.4425448463366005,0.43642577923865766,0.4800749022538236,0.5251142148410317,0.5607338165124269,0.5666347187032209,0.5617149635086562,0.6373800832489056,0.29192611649054706,0.4673218964913234,0.6323149687146801,0.7114571413738313,0.5325459452779122,0.5585175036817839,0.42179840163752397,0.6337947933249071,0.6480780657491628,0.7665248852897557,0.7091013190835478],[0.7847858890730937,0.8699998222871524,0.8615302428258186,0.8269167852655557,0.7545159604631838,0.7563960822111341,0.7507528299684321,0.7220768097477386,0.6196253081961783,0.5517249571223407,0.7164724948420929,0.6836316583497607,0.6755898763682875,0.6844888799968911,0.7176616833604098,0.7711557105029349,0.6061195575663895,0.6964360401172177,0.7271248484672033,0.7340222016087752,0.6555033277570457,0.6569991602150944,0.6796676541471849,0.634964352200772,0.6048786118142141,0.5372231664491851,0.5597484817531616,0.46865647363335866,0.4685587323559088,0.5544398303945967,0.5724437740892043,0.446554377599005,0.4998293151955983,0.44373739847709387,0.44388741669878884,0.4120075165081732,0.2307264741101902,0.31535213776157023,0.2839951261754423,0.22309192807101416,0.25061393782610086,0.17928003503495785,0.16989302779546403,0.17265937900164682,0.08686907373017305,0.11687496320970699,0,0.04834363204716324,0.09102436702640486,0.14397120262642568,0.19184124398844116,0.18101334586740714,0.1745736332170016,0.25053165178690534,0.13736487596226737,0.23492927207936892,0.08830467256642427,0.3066723048472202,0.28569800567021164,0.18415113365528082,0.30461384462528485,0.40171931998036653,0.36982170808900866,0.2857992830352589,0.44105360639486413,0.4096057360038043,0.43680693196037995,0.4778052530026287,0.5622098476035884,0.37540785153170264,0.39813422871465276,0.4469797560802069,0.48103694516100476,0.5381253683490781,0.5861584649332829,0.5952351075422774,0.590018918534739,0.6774015739010147,0.3599825804337932,0.5381537801642695,0.6908470980874979,0.7752467376610791,0.6004295508557241,0.6449318398494961,0.4995708219691999,0.7169973781833283,0.7305663465137017,0.8543938291570452,0.7956162582583088],[0.7937932857797607,0.8809307663287208,0.8753953944864782,0.8446417580937156,0.7750956671957309,0.7817920223996424,0.7777889676221853,0.7517027832739027,0.6469750622565357,0.5776438606477297,0.7376565979389755,0.7120365719629622,0.6953711010007699,0.7074174788498832,0.7480355373568168,0.7989828384373163,0.6355253327297938,0.7293120681492793,0.762774904835898,0.7736482247432005,0.6937104117520833,0.7004430944348825,0.7257398727474252,0.6819671105364429,0.6533608358210996,0.5795669742953587,0.6091881163041365,0.5095695296831726,0.5162948035391701,0.6034483968663563,0.6236195873555386,0.49555972849485075,0.5524401488697385,0.49628784242856294,0.4968863441590239,0.46542327760549934,0.2754907833921195,0.36897134513852947,0.3357831812303491,0.27510560259729805,0.3041560614747879,0.23097017562522276,0.22222371972016897,0.21667783088766887,0.14050819440557957,0.15874618292287704,0.04834363204716324,0,0.041255059822641056,0.09033701760502641,0.15001738290883412,0.21924295211521558,0.12155329874938682,0.20648444943155872,0.19099213077810087,0.18652933114427944,0.064390932289376,0.26195225937225947,0.24491198564727998,0.13067503072591433,0.2524012437633374,0.353621427185582,0.32221696122082477,0.24276542651157132,0.400579686140597,0.3714831503362766,0.4032270148388099,0.44543779539283024,0.5271822522033117,0.3286677402997918,0.35299908012073217,0.41993749073750747,0.44972731162524104,0.5105282654729225,0.5628525524844392,0.5731163623040754,0.5678409161813834,0.6592207539231235,0.36042421657676404,0.5360135698142886,0.6809144904191098,0.767175671539277,0.5959895894450692,0.6499058517633702,0.5015990803068818,0.7195405751020203,0.7326064216199004,0.8587763240206178,0.7995271605697355],[0.7787204854468218,0.8672098959793852,0.864212485095486,0.8369707930544881,0.7702675930202945,0.7814995019691998,0.7791142561333112,0.7557121006242066,0.6491663421554422,0.5788369369429596,0.7335341115400541,0.714973504463491,0.6901349781442413,0.7050581392943261,0.7528200494628385,0.801018670140966,0.6398215813538813,0.7367643272405666,0.7730930188169693,0.7884495693106208,0.7071318547334974,0.7201445076594648,0.7488828349539376,0.7065504036317493,0.6802432413273019,0.598349696521604,0.6377272533812216,0.5270161556057463,0.5425141753122507,0.6313015195389454,0.6552483806203668,0.5237867471585669,0.5874693883048915,0.5312787214332532,0.5331641018875496,0.5033737257922657,0.2999039635364535,0.4085522697980662,0.36965703070658473,0.30985505359024784,0.34322068431279995,0.275530771880052,0.26621453326254463,0.26322027266371606,0.18176521222418213,0.18356491139226622,0.09102436702640486,0.041255059822641056,0,0.05689837629223488,0.10504285463476647,0.26546907236146444,0.09239892557902593,0.1603385138988755,0.23132635958013034,0.14007434573249877,0.04816015040202522,0.21557482092781582,0.19966746115280273,0.09138798759972762,0.2084569581302649,0.3071937848278785,0.2757156446172341,0.1967915971413561,0.35506160052788194,0.3268471048072404,0.3605048056043991,0.4031720371586278,0.48349838329747413,0.28211616612065354,0.30651479048022834,0.3806659884264553,0.4079820777117398,0.4705687397352583,0.5251988903369331,0.5361457985312431,0.5308521572445247,0.6244381384520692,0.34149670095729845,0.5132124988316297,0.6516195900143771,0.7389307618256885,0.5710743258552328,0.632096992906083,0.482348379907609,0.6994718481140787,0.712089402137134,0.8397160444308441,0.780265795760579],[0.8202515057221494,0.9098609006363154,0.9093208550788267,0.8852394134979504,0.8209517120294755,0.8353427153995675,0.8339774392231438,0.8121577425695022,0.7047992403156281,0.6340736628536853,0.784833855064928,0.7708953495858739,0.7407203428060994,0.7576849436359423,0.8096831115116656,0.8562726762501156,0.6966280374998044,0.794958782729315,0.832464185727628,0.8493108212119079,0.7676443341903713,0.7820505627460669,0.8110683847862684,0.7687385902495818,0.7422728546456911,0.6601663766289756,0.6995037134776285,0.5886521809421115,0.6045863930080309,0.693192143792748,0.7162410361410335,0.5855838729358348,0.6469599986271797,0.5907682287421407,0.5918927816264486,0.5608900218091207,0.36203263785225415,0.4646055285665551,0.42959827972240217,0.3693012303772587,0.3997488475637787,0.32431453674634403,0.3163006483556116,0.30205335078447826,0.23611829431567635,0.24551152092380793,0.14397120262642568,0.09033701760502641,0.05689837629223488,0,0.10680963816299256,0.29819291865218,0.030558777956814307,0.14621121149004584,0.28662747046532405,0.11376790877907067,0.10629511943933621,0.195145726868273,0.19027573966152753,0.03708866227020695,0.1624018437733323,0.27420813106425845,0.24486149193537518,0.1820726053613045,0.33918599398465826,0.3165362488749092,0.3574762688428996,0.40100137775196154,0.47515108148278157,0.2535100083916685,0