"trial_id","rt","stimulus","response","trial_type","trial_index","plugin_version","time_elapsed","language","participant_number","success","raw_payload","placements","dissimilarity_vector","n_words","trial_category","distance_matrix","value"
"consent_form","2664","
    <div style=""max-width:800px; margin:0 auto; text-align:left; font-size: 16px; padding: 10px 0;"">
      <h1>Informed Consent Form</h1>
      <p>You are being invited to participate in a research study titled <strong>""Reproducibility of Psychological Science and Instruction.""</strong> This study is being done by Dr. Bria Long from UC San Diego and associated graduate students in the Experimental Methods course. You were selected to participate in this study because you are an adult in the U.S. and have been a represented population in previous psychology studies.</p>
      
      <p>The purpose of this study is to better understand how well previously published studies in the psychological field replicate online and with different populations. Your participation in this research should last approximately <strong>5-30 minutes</strong>. If you agree to take part in this study, you may be asked to view a set of stimuli, including pictures, sounds, written text, or videos and then giving some responses via key-presses, verbally, or with paper-and-pencil. We may also observe your choices or preferences among an array of stimuli. These stimuli will be taken directly from or closely adapted from studies that already exist in the published psychological literature. Stimuli will include, e.g., pictures of objects and human faces, audio and video clips, short text passages, etc. None of the stimuli will be disturbing, threatening, or offensive. The online and in-person experiments described in this protocol will take no more than 30 minutes. An example game you might play would be to click on an image on the screen that matches a word you hear being said out loud. Your total expected time commitment for this study is between 5-30 minutes, and is specified in the study description.</p>
      
      <p>Your participation in this study is completely voluntary and you can withdraw at any time. Choosing not to participate or withdrawing will result in no penalty or loss of benefits to which you are entitled. You are free to skip any question that you choose.</p>
      
      <p>We will not be asking for any personally identifying information, and we will handle responses as confidentially as possible. Your SONA or Prolific IDs will never be tied to your responses on this survey. However, we cannot guarantee the confidentiality of information transmitted over the Internet. To minimize this risk, data containing anything that might be personally identifying (e.g. Prolific IDs or IP addresses) will be encrypted on transfer and storage and will only be accessible to qualified lab personnel. We will be keeping data collected as part of this experiment indefinitely. This anonymized data (containing neither Prolific IDs nor IP addresses) may be shared with the scientific community or with other participants to be used as stimuli in future studies.</p>
      
      <p>If you have questions about this project or if you have a research-related problem, you may contact the researcher(s), <strong>Dr. Bria Long, <a href=""mailto:brlong@ucsd.edu"">brlong@ucsd.edu</a></strong>. If you have any questions concerning your rights as a research subject, you may contact the UC San Diego Office of IRB Administration at <a href=""mailto:irb@ucsd.edu"">irb@ucsd.edu</a> or 858-246-4777.</p>
      
      <h3 style=""margin-top: 25px;"">Consent Statement</h3>
      <p style=""font-weight: bold;"">By participating in this research you are indicating that you are at least 18 years old, have read this consent form, and agree to participate in this research study. Please keep this consent form for your records.</p>
    </div>
  ","0","html-button-response","0","2.1.0","2666","zh","1fro24bg4k_6knhxd","","","","","","","",""
"","2997","
    <div style=""display:flex; align-items:center; justify-content:center; height:100vh; font-family:sans-serif;"">
      <div style=""max-width:900px; margin:0 auto; text-align:center;"">
        <h1 style= ""font-size: 24px;"">Welcome! Thank you for participating in the study.</h1>
        <p style=""font-size:18px; line-height:1.6;"">
          In this task, you will be presented with <strong>90 words</strong> arranged <strong>outside a circle</strong>.<br>
          Your job is to <strong>drag these words into the circle</strong> and <strong>rearrange them</strong> based on their <strong>meaning similarity</strong>.<br><br>
          Words that are <strong>similar in meaning</strong> should be placed <strong>closer together</strong>.<br>
          Words that are <strong>different in meaning</strong> should be placed <strong>farther apart</strong>.<br><br>
          You can place the words <strong>anywhere inside the circle</strong>. There is no single correct answer — 
          we are interested in <strong>your personal judgment</strong> of how these words relate to each other.<br><br>
          <strong>You must move all words into the circle before you can finish.</strong><br>
          After the initial arrangement, you will arrange words from specific categories.
        </p>
        <p style=""font-size:16px; margin-top:30px;""><em>Press any key to continue.</em></p>
      </div>
    </div>
  "," ","html-keyboard-response","1","2.1.0","5666","zh","1fro24bg4k_6knhxd","","","","","","","",""
"","2733","<p style='font-size:20px;'>Which is your first language or primary language of use?</p>","0","html-button-response","2","2.1.0","8401","zh","1fro24bg4k_6knhxd","","","","","","","",""
"","1930","","","fullscreen","3","2.1.0","11335","zh","1fro24bg4k_6knhxd","true","{""placements"":[{""word"":""骄傲"",""x"":37,""y"":168.7,""cx"":56,""cy"":186.1,""angle_rad"":-2.633,""angle_deg"":209.1},{""word"":""冰箱"",""x"":61,""y"":504.7,""cx"":80,""cy"":522.1,""angle_rad"":2.574,""angle_deg"":147.5},{""word"":""兔子"",""x"":407,""y"":649.7,""cx"":426,""cy"":667.1,""angle_rad"":1.336,""angle_deg"":76.5},{""word"":""协议"",""x"":141,""y"":62.7,""cx"":160,""cy"":80.1,""angle_rad"":-2.184,""angle_deg"":234.9},{""word"":""嘴唇"",""x"":600,""y"":117.7,""cx"":619,""cy"":135.1,""angle_rad"":-0.674,""angle_deg"":321.4},{""word"":""剪刀"",""x"":-14,""y"":371.7,""cx"":5,""cy"":389.1,""angle_rad"":3.029,""angle_deg"":173.5},{""word"":""长颈鹿"",""x"":320,""y"":670.7,""cx"":346,""cy"":688.1,""angle_rad"":1.583,""angle_deg"":90.7},{""word"":""制度"",""x"":76,""y"":154.7,""cx"":95,""cy"":172.1,""angle_rad"":-2.532,""angle_deg"":214.9},{""word"":""过失"",""x"":406,""y"":29.7,""cx"":425,""cy"":47.1,""angle_rad"":-1.328,""angle_deg"":283.9},{""word"":""友情"",""x"":68,""y"":102.7,""cx"":87,""cy"":120.1,""angle_rad"":-2.423,""angle_deg"":221.2},{""word"":""方法"",""x"":8,""y"":239.7,""cx"":27,""cy"":257.1,""angle_rad"":-2.862,""angle_deg"":196},{""word"":""蚂蚁"",""x"":497,""y"":624.7,""cx"":516,""cy"":642.1,""angle_rad"":1.054,""angle_deg"":60.4},{""word"":""沮丧"",""x"":300,""y"":-1.3,""cx"":319,""cy"":16.1,""angle_rad"":-1.663,""angle_deg"":264.7},{""word"":""沙发"",""x"":36,""y"":484.7,""cx"":55,""cy"":502.1,""angle_rad"":2.666,""angle_deg"":152.7},{""word"":""暴力"",""x"":188,""y"":644.7,""cx"":207,""cy"":662.1,""angle_rad"":2,""angle_deg"":114.6},{""word"":""筷子"",""x"":-15,""y"":348.7,""cx"":4,""cy"":366.1,""angle_rad"":3.095,""angle_deg"":177.3},{""word"":""概念"",""x"":33,""y"":193.7,""cx"":52,""cy"":211.1,""angle_rad"":-2.705,""angle_deg"":205},{""word"":""麻雀"",""x"":484,""y"":624.7,""cx"":503,""cy"":642.1,""angle_rad"":1.088,""angle_deg"":62.4},{""word"":""椅子"",""x"":30,""y"":478.7,""cx"":49,""cy"":496.1,""angle_rad"":2.69,""angle_deg"":154.1},{""word"":""买卖"",""x"":414,""y"":9.7,""cx"":433,""cy"":27.1,""angle_rad"":-1.319,""angle_deg"":284.4},{""word"":""魔力"",""x"":465,""y"":29.7,""cx"":484,""cy"":47.1,""angle_rad"":-1.154,""angle_deg"":293.9},{""word"":""结果"",""x"":17,""y"":228.7,""cx"":36,""cy"":246.1,""angle_rad"":-2.822,""angle_deg"":198.3},{""word"":""敌意"",""x"":382,""y"":22.7,""cx"":401,""cy"":40.1,""angle_rad"":-1.408,""angle_deg"":279.3},{""word"":""纠纷"",""x"":388,""y"":-3.3,""cx"":407,""cy"":14.1,""angle_rad"":-1.403,""angle_deg"":279.6},{""word"":""关系"",""x"":134,""y"":63.7,""cx"":153,""cy"":81.1,""angle_rad"":-2.203,""angle_deg"":233.8},{""word"":""铅笔"",""x"":3,""y"":351.7,""cx"":22,""cy"":369.1,""angle_rad"":3.083,""angle_deg"":176.7},{""word"":""愤怒"",""x"":354,""y"":-3.3,""cx"":373,""cy"":14.1,""angle_rad"":-1.502,""angle_deg"":273.9},{""word"":""团队"",""x"":143,""y"":50.7,""cx"":162,""cy"":68.1,""angle_rad"":-2.159,""angle_deg"":236.3},{""word"":""洗衣机"",""x"":86,""y"":548.7,""cx"":112,""cy"":566.1,""angle_rad"":2.404,""angle_deg"":137.8},{""word"":""大腿"",""x"":664,""y"":262.7,""cx"":683,""cy"":280.1,""angle_rad"":-0.207,""angle_deg"":348.1},{""word"":""慈善"",""x"":108,""y"":97.7,""cx"":127,""cy"":115.1,""angle_rad"":-2.33,""angle_deg"":226.5},{""word"":""手指"",""x"":629,""y"":151.7,""cx"":648,""cy"":169.1,""angle_rad"":-0.546,""angle_deg"":328.7},{""word"":""性质"",""x"":45,""y"":148.7,""cx"":64,""cy"":166.1,""angle_rad"":-2.57,""angle_deg"":212.7},{""word"":""猫"",""x"":294,""y"":658.7,""cx"":306,""cy"":676.1,""angle_rad"":1.705,""angle_deg"":97.7},{""word"":""眼睛"",""x"":554,""y"":74.7,""cx"":573,""cy"":92.1,""angle_rad"":-0.858,""angle_deg"":310.9},{""word"":""床"",""x"":45,""y"":473.7,""cx"":57,""cy"":491.1,""angle_rad"":2.693,""angle_deg"":154.3},{""word"":""鼠标"",""x"":12,""y"":416.7,""cx"":31,""cy"":434.1,""angle_rad"":2.884,""angle_deg"":165.2},{""word"":""微波炉"",""x"":65,""y"":520.7,""cx"":91,""cy"":538.1,""angle_rad"":2.513,""angle_deg"":144},{""word"":""原因"",""x"":20,""y"":217.7,""cx"":39,""cy"":235.1,""angle_rad"":-2.788,""angle_deg"":200.3},{""word"":""锤子"",""x"":-10,""y"":333.7,""cx"":9,""cy"":351.1,""angle_rad"":3.138,""angle_deg"":179.8},{""word"":""勺子"",""x"":-17,""y"":312.7,""cx"":2,""cy"":330.1,""angle_rad"":-3.084,""angle_deg"":183.3},{""word"":""缘分"",""x"":116,""y"":63.7,""cx"":135,""cy"":81.1,""angle_rad"":-2.245,""angle_deg"":231.4},{""word"":""胳膊"",""x"":642,""y"":192.7,""cx"":661,""cy"":210.1,""angle_rad"":-0.423,""angle_deg"":335.8},{""word"":""老鼠"",""x"":462,""y"":644.7,""cx"":481,""cy"":662.1,""angle_rad"":1.173,""angle_deg"":67.2},{""word"":""兴奋"",""x"":182,""y"":17.7,""cx"":201,""cy"":35.1,""angle_rad"":-2.013,""angle_deg"":244.7},{""word"":""耳朵"",""x"":562,""y"":89.7,""cx"":581,""cy"":107.1,""angle_rad"":-0.81,""angle_deg"":313.6},{""word"":""社会"",""x"":58,""y"":128.7,""cx"":77,""cy"":146.1,""angle_rad"":-2.5,""angle_deg"":216.8},{""word"":""牙刷"",""x"":-10,""y"":312.7,""cx"":9,""cy"":330.1,""angle_rad"":-3.083,""angle_deg"":183.3},{""word"":""过程"",""x"":12,""y"":198.7,""cx"":31,""cy"":216.1,""angle_rad"":-2.744,""angle_deg"":202.8},{""word"":""光彩"",""x"":193,""y"":30.7,""cx"":212,""cy"":48.1,""angle_rad"":-2,""angle_deg"":245.4},{""word"":""空调"",""x"":100,""y"":583.7,""cx"":119,""cy"":601.1,""angle_rad"":2.315,""angle_deg"":132.6},{""word"":""乌龟"",""x"":426,""y"":643.7,""cx"":445,""cy"":661.1,""angle_rad"":1.274,""angle_deg"":73},{""word"":""地位"",""x"":181,""y"":35.7,""cx"":200,""cy"":53.1,""angle_rad"":-2.039,""angle_deg"":243.2},{""word"":""创伤"",""x"":219,""y"":16.7,""cx"":238,""cy"":34.1,""angle_rad"":-1.911,""angle_deg"":250.5},{""word"":""死亡"",""x"":247,""y"":2.7,""cx"":266,""cy"":20.1,""angle_rad"":-1.82,""angle_deg"":255.7},{""word"":""快乐"",""x"":170,""y"":23.7,""cx"":189,""cy"":41.1,""angle_rad"":-2.051,""angle_deg"":242.5},{""word"":""身份"",""x"":170,""y"":30.7,""cx"":189,""cy"":48.1,""angle_rad"":-2.061,""angle_deg"":241.9},{""word"":""婚姻"",""x"":144,""y"":45.7,""cx"":163,""cy"":63.1,""angle_rad"":-2.148,""angle_deg"":236.9},{""word"":""错误"",""x"":406,""y"":6.7,""cx"":425,""cy"":24.1,""angle_rad"":-1.345,""angle_deg"":283},{""word"":""脚踝"",""x"":657,""y"":233.7,""cx"":676,""cy"":251.1,""angle_rad"":-0.295,""angle_deg"":343.1},{""word"":""老虎"",""x"":264,""y"":659.7,""cx"":283,""cy"":677.1,""angle_rad"":1.773,""angle_deg"":101.6},{""word"":""冷漠"",""x"":330,""y"":1.7,""cx"":349,""cy"":19.1,""angle_rad"":-1.574,""angle_deg"":269.8},{""word"":""疾病"",""x"":211,""y"":13.7,""cx"":230,""cy"":31.1,""angle_rad"":-1.931,""angle_deg"":249.4},{""word"":""扫帚"",""x"":28,""y"":355.7,""cx"":47,""cy"":373.1,""angle_rad"":3.065,""angle_deg"":175.6},{""word"":""难过"",""x"":266,""y"":11.7,""cx"":285,""cy"":29.1,""angle_rad"":-1.771,""angle_deg"":258.6},{""word"":""钥匙"",""x"":10,""y"":382.7,""cx"":29,""cy"":400.1,""angle_rad"":2.987,""angle_deg"":171.1},{""word"":""天堂"",""x"":155,""y"":41.7,""cx"":174,""cy"":59.1,""angle_rad"":-2.115,""angle_deg"":238.8},{""word"":""义务"",""x"":97,""y"":109.7,""cx"":116,""cy"":127.1,""angle_rad"":-2.38,""angle_deg"":223.6},{""word"":""数据"",""x"":14,""y"":245.7,""cx"":33,""cy"":263.1,""angle_rad"":-2.874,""angle_deg"":195.3},{""word"":""爱心"",""x"":93,""y"":76.7,""cx"":112,""cy"":94.1,""angle_rad"":-2.32,""angle_deg"":227.1},{""word"":""内容"",""x"":20,""y"":251.7,""cx"":39,""cy"":269.1,""angle_rad"":-2.887,""angle_deg"":194.6},{""word"":""现象"",""x"":39,""y"":176.7,""cx"":58,""cy"":194.1,""angle_rad"":-2.651,""angle_deg"":208.1},{""word"":""柜子"",""x"":36,""y"":505.7,""cx"":55,""cy"":523.1,""angle_rad"":2.611,""angle_deg"":149.6},{""word"":""奇迹"",""x"":166,""y"":50.7,""cx"":185,""cy"":68.1,""angle_rad"":-2.1,""angle_deg"":239.7},{""word"":""恐惧"",""x"":446,""y"":20.7,""cx"":465,""cy"":38.1,""angle_rad"":-1.218,""angle_deg"":290.2},{""word"":""膝盖"",""x"":647,""y"":212.7,""cx"":666,""cy"":230.1,""angle_rad"":-0.363,""angle_deg"":339.2},{""word"":""舒心"",""x"":185,""y"":29.7,""cx"":204,""cy"":47.1,""angle_rad"":-2.02,""angle_deg"":244.3},{""word"":""债务"",""x"":410,""y"":-4.3,""cx"":429,""cy"":13.1,""angle_rad"":-1.34,""angle_deg"":283.2},{""word"":""大象"",""x"":300,""y"":662.7,""cx"":319,""cy"":680.1,""angle_rad"":1.664,""angle_deg"":95.4},{""word"":""作用"",""x"":-6,""y"":257.7,""cx"":13,""cy"":275.1,""angle_rad"":-2.923,""angle_deg"":192.5},{""word"":""纪律"",""x"":27,""y"":231.7,""cx"":46,""cy"":249.1,""angle_rad"":-2.821,""angle_deg"":198.4},{""word"":""电视"",""x"":19,""y"":441.7,""cx"":38,""cy"":459.1,""angle_rad"":2.805,""angle_deg"":160.7},{""word"":""肩膀"",""x"":635,""y"":165.7,""cx"":654,""cy"":183.1,""angle_rad"":-0.502,""angle_deg"":331.2},{""word"":""鼻子"",""x"":574,""y"":101.7,""cx"":593,""cy"":119.1,""angle_rad"":-0.76,""angle_deg"":316.5},{""word"":""斧头"",""x"":162,""y"":628.7,""cx"":181,""cy"":646.1,""angle_rad"":2.089,""angle_deg"":119.7},{""word"":""风景"",""x"":196,""y"":47.7,""cx"":215,""cy"":65.1,""angle_rad"":-2.013,""angle_deg"":244.6},{""word"":""熊猫"",""x"":382,""y"":668.7,""cx"":401,""cy"":686.1,""angle_rad"":1.42,""angle_deg"":81.4},{""word"":""骗局"",""x"":378,""y"":14.7,""cx"":397,""cy"":32.1,""angle_rad"":-1.424,""angle_deg"":278.4},{""word"":""桌子"",""x"":28,""y"":455.7,""cx"":47,""cy"":473.1,""angle_rad"":2.756,""angle_deg"":157.9}],""n_words"":89,""words"":[""骄傲"",""冰箱"",""兔子"",""协议"",""嘴唇"",""剪刀"",""长颈鹿"",""制度"",""过失"",""友情"",""方法"",""蚂蚁"",""沮丧"",""沙发"",""暴力"",""筷子"",""概念"",""麻雀"",""椅子"",""买卖"",""魔力"",""结果"",""敌意"",""纠纷"",""关系"",""铅笔"",""愤怒"",""团队"",""洗衣机"",""大腿"",""慈善"",""手指"",""性质"",""猫"",""眼睛"",""床"",""鼠标"",""微波炉"",""原因"",""锤子"",""勺子"",""缘分"",""胳膊"",""老鼠"",""兴奋"",""耳朵"",""社会"",""牙刷"",""过程"",""光彩"",""空调"",""乌龟"",""地位"",""创伤"",""死亡"",""快乐"",""身份"",""婚姻"",""错误"",""脚踝"",""老虎"",""冷漠"",""疾病"",""扫帚"",""难过"",""钥匙"",""天堂"",""义务"",""数据"",""爱心"",""内容"",""现象"",""柜子"",""奇迹"",""恐惧"",""膝盖"",""舒心"",""债务"",""大象"",""作用"",""纪律"",""电视"",""肩膀"",""鼻子"",""斧头"",""风景"",""熊猫"",""骗局"",""桌子""],""distance_matrix"":[[0,0.4839441585272581,0.8777854922801149,0.20918218034473404,0.8171899763856435,0.297886464273921,0.8382533822739169,0.05300688709344533,0.5677569978059179,0.09892927946393645,0.10443808256325061,0.9374050792604707,0.4493775679627125,0.4535231034476565,0.7210178823880363,0.2658705789553687,0.029494014556079893,0.9240331134020372,0.44488368340646894,0.5894127475656343,0.6489988090239804,0.08482013200382847,0.5390332529721251,0.5627464904970121,0.20108386866661956,0.2640778849761953,0.5186623770039728,0.22394436291468078,0.5528664113515395,0.9174075018652781,0.13903182928988614,0.8564864450901477,0.023983924104942544,0.7949963728608637,0.7590898241192887,0.43747714932886833,0.35616058197393946,0.5085671307179083,0.06821927622914951,0.24282669621974098,0.21690310927902354,0.1842393358207076,0.8757880897947444,0.9234115368489874,0.2979422134979984,0.7670173891408036,0.05846360362261149,0.21352469386539283,0.04952715753612829,0.2963843722043455,0.6048709441042616,0.8881631382309715,0.2785066043293715,0.3384625967696731,0.38304424144603116,0.2795799057854988,0.27214010956770984,0.23037527123585624,0.5804231241572655,0.9019316079096866,0.7816394693365896,0.48451976823038306,0.3324837115919236,0.26566028456456753,0.39757972852363765,0.3072050709014903,0.24544455135130755,0.11531216114853929,0.10978795461850818,0.14967200511503218,0.1161500565908933,0.004590905109708056,0.48415630367359125,0.2475895802538965,0.6270426733545098,0.8846994471096489,0.2887417110540583,0.5923432814174211,0.8089364534814667,0.13674767210313604,0.08561245693003788,0.39166005821596067,0.8648938210648572,0.7819737876947177,0.687911441106983,0.2840234464158795,0.8787032658343431,0.5383630942796761,0.4114234040980253],[0.4839441585272581,0,0.5398114753231288,0.6477967015804161,0.9604931836332077,0.21529436194138638,0.4499431775199391,0.5035863007013962,0.8489374457488039,0.5790605288925085,0.38678099967415336,0.6522179125005231,0.8088738946464357,0.03926407237321328,0.2682928712189999,0.24569265903796791,0.4480620883784382,0.6339540182671672,0.051581937618719105,0.8794341616048608,0.902184289248101,0.40025559666658844,0.8373231494996737,0.8738489400150128,0.6446161446947276,0.2312460827656945,0.848021318448705,0.6655412549514873,0.07192543256436447,0.940369840971725,0.5902108197514444,0.9680950598812197,0.5123942449448742,0.3914974064230669,0.9468315765035826,0.048869663499380864,0.13948874433120276,0.020885330152204507,0.4154680265943994,0.2626517075484549,0.29486777803285985,0.6408458405185501,0.9545557951596072,0.6121379005913256,0.7245627792629096,0.9415511341788387,0.5410620934252205,0.2911744402712348,0.44462016116049724,0.7103107593343347,0.12107930451827242,0.5623003490204914,0.6987457601253426,0.7408040044993415,0.7734938819441829,0.7120015996049521,0.7020465736260062,0.672978064108853,0.8763035146556121,0.9476206234706782,0.3651355384809485,0.8246395744873394,0.741476275188527,0.21517968931077758,0.7714120732585126,0.18545111290046956,0.6817330294773909,0.5711486262349519,0.3765434867587001,0.6186412220140423,0.36643545656207466,0.472100614214217,0.029059333536525834,0.6723069178923519,0.8947145909076244,0.9476239655030558,0.7086798150645428,0.8928268461840849,0.4104952414226895,0.365888674314947,0.3938719405995778,0.10301199657891666,0.9649971088004976,0.9441843966007637,0.2258539411054614,0.6876803590743756,0.5183872685009809,0.8438771724172438,0.07873820063569202],[0.8777854922801149,0.5398114753231288,0,0.932651292992426,0.8180964993183775,0.7284983936229772,0.11321401045054472,0.8611940671539133,0.8969760951820959,0.9312978757055101,0.8271050216921388,0.12881859292931058,0.9549372831844197,0.5848604471060519,0.31210717045377667,0.7486925225407559,0.8528568958588536,0.11065603966827146,0.5964305936320746,0.9262053725356033,0.9009236935154282,0.8297017497987671,0.9079127835486077,0.945516162850059,0.9355892560557872,0.7248679461506241,0.9482453802747455,0.9474423647963023,0.4737153204578088,0.6702329736261787,0.9083206734875482,0.7879220096750646,0.8942002506793543,0.168101215376342,0.8583084173844063,0.588925898624924,0.6615358523869632,0.5162157383515465,0.8386168892863103,0.7557792137026204,0.7826298802297692,0.9469742773697217,0.7421763300144991,0.07312293819594413,0.9711614600025866,0.8401647620480048,0.9073174726443762,0.7746619540111161,0.8671022675420633,0.9479547688396407,0.4506242388955743,0.021626906530340252,0.946968703517585,0.9558025345667426,0.9647913950381753,0.9689802513786342,0.9594373782643427,0.9535377533721505,0.9305268584954424,0.7005438764923736,0.2016698132054532,0.9444694529199493,0.9633710012046115,0.6922616508667249,0.9456892004358185,0.6904665875821286,0.9526327830118851,0.9008487283903501,0.814728442772458,0.9456892004358185,0.8023518993510611,0.8667700783407719,0.5730872285472461,0.9344117816706273,0.911865498800411,0.7198367991778613,0.9532044424251086,0.9465817986264783,0.14979385363275446,0.8231844614356841,0.8166143395420955,0.6347480966482877,0.7730032611283952,0.828241446512873,0.3512613728674167,0.9230960193926248,0.038366975985248374,0.9198213540098643,0.6136403625836072],[0.20918218034473404,0.6477967015804161,0.932651292992426,0,0.6669089689598215,0.49683984272879733,0.9200439250088278,0.15688129331659437,0.3821112791901311,0.1139875420064823,0.3155250057975719,0.9630070812359035,0.24258425540169634,0.6269152177362467,0.8443069845124135,0.46778581917573675,0.2402241297628805,0.9529928794767937,0.6206246571486851,0.39823068044537735,0.4676357935992051,0.29481146173688305,0.348925357880459,0.36550944371155475,0.0028766873339318277,0.45973164563821656,0.3178457600457131,0.01030812836583652,0.7049543497346914,0.8093586002926184,0.06273276256711156,0.7161643664494226,0.1805741228377291,0.8876711834501155,0.5952719231589874,0.6106403932418639,0.5421705045820776,0.6681999063059797,0.27940191930653546,0.4451023843724776,0.4239714804120528,0.029059333536525834,0.7475885541822773,0.9621131442451349,0.08136494143001075,0.6079491823916325,0.1472492696423511,0.4186036688292603,0.26599901257577463,0.08162813301165858,0.7549102385177007,0.9365601584806323,0.06295982882353221,0.12465558408109911,0.17023985035679867,0.06345681467609515,0.05555812979880836,0.017743499498684877,0.3876625457521692,0.7855225823812866,0.8817153855224021,0.28226596166672613,0.11720444315042025,0.4506544331762863,0.18949594683318677,0.49695587077857667,0.029378601427918972,0.08647742685379445,0.3174955929603366,0.06549843731489915,0.31992264725386194,0.21570478827981635,0.6566833855973289,0.033013744134411924,0.44167330966837665,0.7624290403067909,0.07279209066114704,0.3969487773556372,0.8980107302496226,0.3487850085129965,0.2899319416654377,0.5733584096068142,0.7286718578644946,0.6267491516065965,0.8187715536252949,0.07572234689825964,0.943892544621653,0.34530035370865525,0.5890703897681002],[0.8171899763856435,0.9604931836332077,0.8180964993183775,0.6669089689598215,0,0.9618354721860478,0.892183708513386,0.7588399417857,0.3033092008740923,0.7689150307908172,0.8742774151665669,0.747246052475624,0.4633523968789904,0.9741315715122671,0.9683567764312877,0.9508780118555937,0.8270591245234563,0.7512491132602567,0.9767684701243586,0.30630770916595024,0.22763489156158861,0.8582789224034127,0.33944854774164823,0.34863862793153605,0.6768791876046002,0.9279313579642842,0.39246966440061065,0.6663281087025116,0.963259208986675,0.22376496276438124,0.710850128304003,0.05774937692296053,0.8034193608565268,0.9042977462800138,0.08441561543147386,0.9630070812359035,0.9548211941437855,0.9614852505173861,0.8511088654670959,0.936526345919042,0.9364790062979694,0.7029682327730324,0.11795336040831762,0.7872327992072347,0.6195174896278982,0.06141646382147363,0.783356738614459,0.9267476480775719,0.8583956674869492,0.5996778275126986,0.9895869756996432,0.8007460888082532,0.6153647380035175,0.5675349890384348,0.5341302764786559,0.6346287989387045,0.6325258517363365,0.6659837758257293,0.31860370911419,0.1810996686056993,0.9227929762023807,0.4212302079105671,0.5799378809181938,0.8963017699359804,0.5037257749847042,0.9360404383564422,0.6510960051756444,0.7263962265681371,0.8675328305756845,0.7345526828694883,0.8609123050349081,0.8154230691917373,0.9911693293793025,0.6331506511570867,0.2580548931274366,0.14717359257034468,0.6113956174003743,0.32193799149879015,0.9000577035080138,0.8998360929519905,0.8447965061382807,0.9629599370402188,0.07921836373124003,0.037095018432039356,0.9743266585669274,0.5906699406049408,0.8569444522384635,0.34955773736012496,0.961743263081078],[0.297886464273921,0.21529436194138638,0.7284983936229772,0.49683984272879733,0.9618354721860478,0,0.6541280255755034,0.3352518603492155,0.7826554662266128,0.40278695081615284,0.18777037350000036,0.824332638568144,0.7037959568876587,0.17281403637970827,0.4879572339799397,0.026144405809048442,0.2611149728001021,0.8073814877143085,0.16132764915935102,0.8102686006797375,0.8511150616554873,0.2060056563761559,0.7625409732438231,0.7945043132226292,0.49102961862893046,0.030851847296711452,0.758984328182554,0.5138208929078772,0.2942688798836022,0.9942808682712087,0.43008384510819664,0.9839075823365364,0.3290515794019538,0.5992430612661407,0.9275536441852482,0.15957223235992735,0.06837380820635783,0.2435186993583795,0.2226162638503581,0.048299924462212325,0.07873820063569202,0.48023195139154073,0.9844740889255086,0.793011698518254,0.5828199247405739,0.9280849027855606,0.3622659613899828,0.07882458056394133,0.2477564013192592,0.5744656395953577,0.34368901172621635,0.7471417206649889,0.5592576478445038,0.6119884845346004,0.6518726653148343,0.5667906342655105,0.5577838040377017,0.5210171635559453,0.8042573766683423,0.991856296260942,0.5764697617916723,0.7295255735393426,0.6093635321968729,0.05812369328900311,0.6578454482191363,0.031073498603745378,0.533396996401278,0.4076342253427434,0.1808455554415037,0.4503198622960918,0.17450018237870363,0.2873338007223975,0.2011960896983961,0.5294084825862375,0.8366125120947273,0.9842863621786844,0.5697567639926604,0.8192285767995862,0.6170570937704254,0.15926616552633727,0.20536166187642715,0.105451071382509,0.9858246741226467,0.9364001016530935,0.44693953140888343,0.5557830856971382,0.7146335851309624,0.7659822253036428,0.12955838321926472],[0.8382533822739169,0.4499431775199391,0.11321401045054472,0.9200439250088278,0.892183708513386,0.6541280255755034,0,0.8295949847262761,0.9346828553155907,0.9031943134644668,0.7747490130205661,0.24946421300968666,0.9736198256652913,0.49635645686438795,0.19884210072718161,0.6777741428391719,0.8099263302912881,0.23121041967051756,0.5084516517862601,0.9650988553729227,0.9490321485483049,0.7800927518138601,0.9412180978507526,0.9797648222395045,0.921692041570616,0.6558225334779304,0.9765349419673227,0.9359626248100862,0.37751205558522,0.7644951048841354,0.8873834904225454,0.8684868551557922,0.8580306331462096,0.05348028505607549,0.9228901894884193,0.5027632519342565,0.5828361471320069,0.4241218931383263,0.7908195254528322,0.687778310506308,0.7168036854926397,0.9299822292449788,0.8276250133005179,0.19310952044609028,0.9683142522686347,0.9067869475044021,0.8752145067690436,0.7097665343588699,0.82033082953053,0.9463933068486472,0.34718049964987757,0.14225070133493126,0.9430242868103369,0.9594923965857658,0.9739570441237748,0.9637501220825468,0.9538299974058447,0.9425461827657144,0.9679903535993151,0.7913671337777942,0.08585226362514345,0.9684625336207656,0.9657714278499605,0.6261046044421278,0.9579749440790459,0.61732281322218,0.9437896482497236,0.8770159437001348,0.7625091914715444,0.9238583369281187,0.7502738508211154,0.8266956828025008,0.4805416538219207,0.9269708465353983,0.9564959424789242,0.8075786315426177,0.9502771911763012,0.9846210273597493,0.03364013246770487,0.7664566754239683,0.7681910994476419,0.5524275996586743,0.855421748514289,0.8974100805066847,0.24092766830084614,0.9212247229577974,0.07284511788888517,0.9523767553872452,0.5297749990984366],[0.05300688709344533,0.5035863007013962,0.8611940671539133,0.15688129331659437,0.7588399417857,0.3352518603492155,0.8295949847262761,0,0.5073202408151124,0.0693083292926517,0.15134927682311683,0.9129978380983814,0.3907499556131176,0.4774664468067327,0.7257739783367908,0.3051423931829287,0.07724370064151428,0.9004550599306114,0.4699302616789688,0.529067496674857,0.5885850462591774,0.1306182582754287,0.47869361138687017,0.5027173722058272,0.14997644956275666,0.2990272963698086,0.45900914081794547,0.173026403149622,0.5678365300965174,0.8646437551018411,0.08791648445447649,0.7992518341820046,0.03862177228376827,0.7895910369434287,0.6995332809477058,0.4611869357767399,0.38598673063877653,0.5264892126690965,0.11552000708369675,0.28224759842197894,0.26000337444907945,0.13756442841461378,0.8200621541416402,0.9024825032895952,0.24524252130873972,0.7078175809098456,0.0386910179281243,0.2549712930759117,0.10585560905155761,0.24125302348201635,0.6193358836508591,0.869768594211361,0.22406388577914008,0.28245320031975224,0.3263053269087424,0.22776158628236376,0.2195433959280752,0.17996763937052257,0.5201386273876817,0.8478832549585748,0.7786120239368466,0.42510691008716467,0.27731719032325614,0.2940113408046318,0.33944854774164823,0.33880692348326136,0.1936869572257663,0.06500077102950542,0.15318795678465189,0.10901393642014155,0.15594625086907912,0.055355133913498264,0.507890386024956,0.19318908284091826,0.5665979077185774,0.829783085477479,0.2344914068481255,0.5321680479511658,0.8024399229304608,0.18461087391484954,0.1256985506776264,0.4193945739609954,0.8081502096153749,0.723112223900129,0.6952886550344665,0.22709113898242633,0.8651608855322929,0.47813300668702585,0.4371877019594954],[0.5677569978059179,0.8489374457488039,0.8969760951820959,0.3821112791901311,0.3033092008740923,0.7826554662266128,0.9346828553155907,0.5073202408151124,0,0.4969811824426517,0.6489971882301344,0.8705990248209998,0.15366416123107257,0.848036242896791,0.9443755614439974,0.7630727778441722,0.5869387160154483,0.8679327967431923,0.8468564081930458,0.023983924104942544,0.07862701333814537,0.6299487571607385,0.029030170583659642,0.04739543254357206,0.39242443364091745,0.7450364936222438,0.082401240239092,0.3774291309114974,0.8766658180558403,0.49967383866091347,0.43843743526658363,0.3633579263804308,0.5470369251912273,0.9263797097305655,0.21821296946718702,0.8337829308177036,0.798178850624068,0.8588035372575856,0.6188655001949253,0.7441579292221298,0.7349655339310947,0.4184912761926447,0.41095322281398555,0.8933927582172486,0.31978611555350656,0.23637510969015774,0.5203422716456038,0.72650060813742,0.6179423862123499,0.3032749606341094,0.9157805476714438,0.8886975653707077,0.3208929821480972,0.26600290356196077,0.22782038563851142,0.33693358294144266,0.3368254323125278,0.37546133829533324,0.026112709245160484,0.46438179376765854,0.9346173529987408,0.1107100832081986,0.27797030391631894,0.7207008737018495,0.19846523863749707,0.7664113058198315,0.3591215036718384,0.4581712759091559,0.6454477740738522,0.45426341119279656,0.6421148681265905,0.5692643908967775,0.8720156110720334,0.34399491780461394,0.05236986129165293,0.43398161376185795,0.31494138175657743,0.04250079785158409,0.9287954302822514,0.6794490410415508,0.6190438459576364,0.8171164308458936,0.38108024234964155,0.2591865870420957,0.9360539704920089,0.30001859157956007,0.9253480258816762,0.03889813397419431,0.8233471202905617],[0.09892927946393645,0.5790605288925085,0.9312978757055101,0.1139875420064823,0.7689150307908172,0.40278695081615284,0.9031943134644668,0.0693083292926517,0.4969811824426517,0,0.21073359531362068,0.9781771129418974,0.36343539103107925,0.5517487588182446,0.8023400745591885,0.37128445879787864,0.13478627392443374,0.9662468693296901,0.5438385925703091,0.5151968270136728,0.5813869903267187,0.19084735206097672,0.46523566109658726,0.4842991253604675,0.1043905222249576,0.3679576753048943,0.4374914971909175,0.12569055904240656,0.6441770734126007,0.892748842943695,0.05136521705661092,0.8140254579100161,0.06758378541045408,0.864264249772273,0.702680623714601,0.5355174490962031,0.45783067667886057,0.6023392412499541,0.17434222188394263,0.3482200657266524,0.3230376508666811,0.08277941328207952,0.8401032529075676,0.9700203066853941,0.1999942256823173,0.7134243309970072,0.033197438158709736,0.31934362148806417,0.1546845767983595,0.20298854308092354,0.6957623859438694,0.9388779403258007,0.18419492492299186,0.24604967537180825,0.2916586117062071,0.18076077480609581,0.17468721740987322,0.13114131743113028,0.5051142788556344,0.8727484338632804,0.8539111755462223,0.4021640209327625,0.23826169189193525,0.3662048803785964,0.3104346801788334,0.4096772599645253,0.14755847290306498,0.03608002303528812,0.21553784546897434,0.04517741116915648,0.22091266699621964,0.10850117140181743,0.5822807271642954,0.15439556442974878,0.5567871602053761,0.8522742014546131,0.19372927261722409,0.5152945332871132,0.8767789322200925,0.24311137057454393,0.19001391123808772,0.49221069710239207,0.8247520892930976,0.730681063924768,0.7720101731213616,0.1957866987604964,0.9367472327675485,0.4626354571999428,0.5107891907943043],[0.10443808256325061,0.38678099967415336,0.8271050216921388,0.3155250057975719,0.8742774151665669,0.18777037350000036,0.7747490130205661,0.15134927682311683,0.6489971882301344,0.21073359531362068,0,0.9004339657315384,0.54485089748311,0.3522773151338606,0.6390692958175292,0.15506476229721725,0.06893310685713243,0.8856113066799354,0.34267245925371675,0.6732375841404451,0.7262164234971397,0.013294362062017128,0.6233090160937328,0.6505270575705806,0.30830886629189935,0.15610246253444815,0.6093221321781437,0.33137074758760315,0.46005265334221535,0.9500772042231715,0.24591112877605598,0.9074837801044577,0.1358594556326234,0.7268730713455032,0.8246024924113176,0.3366986983484775,0.2508231552234987,0.4129624137871758,0.029117589646521454,0.13217393669754937,0.10512072320855562,0.2937818398677075,0.9199349407300627,0.8800421821796482,0.4040170525138097,0.8297970642515038,0.17015000662547097,0.10223866242076465,0.05265381758213618,0.39971764893822775,0.5120011274136592,0.8405600714202685,0.3827416824278999,0.4403945950885884,0.48354993149588804,0.3864191845498068,0.3782989508692283,0.3381671865446216,0.6653088149686335,0.9393185651923492,0.7100676144488385,0.5766519449246393,0.43570161696759546,0.16427129617535527,0.49481454552685183,0.20118079038505648,0.3522891459318011,0.2223802797509217,0.004939644030234164,0.2607224699687731,0.01731738420804819,0.09498515885570538,0.3827280481209655,0.3519103672036151,0.7069006891223956,0.9255225232842832,0.3931926620720808,0.6785376591664246,0.7423452108385031,0.02582608107075594,0.02263440699563995,0.287662072683915,0.9135340274305366,0.8423898977076038,0.6028572307784524,0.3845453908820102,0.8227795971677899,0.6242529208008839,0.30899552233108524],[0.9374050792604707,0.6522179125005231,0.12881859292931058,0.9630070812359035,0.747246052475624,0.824332638568144,0.24946421300968666,0.9129978380983814,0.8705990248209998,0.9781771129418974,0.9004339657315384,0,0.9498771754919759,0.6953628384633374,0.4442528561136004,0.8410367074625709,0.9163623429915065,0.011525402552664682,0.7063046740958884,0.8978144756418893,0.8617609895533984,0.9002816041834961,0.8865972124882372,0.9223410869787262,0.9672843835375923,0.8158922891587216,0.9320943062485525,0.9763046029698466,0.5922261930950373,0.5741053350112638,0.9480583301769105,0.7089056082457482,0.950093871397928,0.30288435487033244,0.7991608245860997,0.6974202009661739,0.7623640841037354,0.6308145014665052,0.9072430315386257,0.8453019667527917,0.8696703453247895,0.9817942751680645,0.6572838782161999,0.05136521705661092,0.9901395918485192,0.7787216527540918,0.9587846220629747,0.8609576381549949,0.9342072953460717,0.9659321202597407,0.5747581086648973,0.09977612717909072,0.9675976048993528,0.967784180253738,0.9704381951144108,0.9906258115171892,0.9816684303319596,0.9817598576581686,0.9037783068097784,0.6088320207795858,0.33625940487989847,0.9334352698923235,0.9766560375589458,0.7812510508189456,0.948147406218433,0.7858391699782036,0.9785311173691241,0.9437896482497236,0.8881441305059743,0.9856993399963467,0.8758567501855422,0.9271382103973894,0.6870801051152218,0.9591149079529793,0.8767705093235494,0.6321516772063652,0.9725955323140373,0.918838649563277,0.2852292305105589,0.9008463856304949,0.8862639360987533,0.7391883701444865,0.6917262027648131,0.76370218106206,0.4812715121687581,0.9418918988519529,0.17217542952009035,0.8991615478442831,0.7197680385197902],[0.4493775679627125,0.8088738946464357,0.9549372831844197,0.24258425540169634,0.4633523968789904,0.7037959568876587,0.9736198256652913,0.3907499556131176,0.15366416123107257,0.36343539103107925,0.54485089748311,0.9498771754919759,0,0.7993494272669746,0.9489598418483435,0.679444394203123,0.4748571786701974,0.9443565584707596,0.7959239664796326,0.15962955746817595,0.2374636252269898,0.5245267994542081,0.11719590686719976,0.12096335143612721,0.2526131223688383,0.6655064731239779,0.07138736853861935,0.2338176114728646,0.8498054325412906,0.6484913049958991,0.30767811716716903,0.5218419795459399,0.4241218931383263,0.9555108891757641,0.379309892815456,0.7838732094899913,0.7330283051703266,0.8234854193037726,0.5111011608005206,0.6583649981182086,0.6434320975204941,0.27722376605730464,0.5661232280125157,0.964080910135345,0.16690920792642142,0.3971460552957417,0.3932856001350951,0.6362176170442899,0.5040420532385762,0.1554767171695355,0.8944126285283946,0.9512276692970064,0.17434807472030237,0.11360139415968813,0.07009450243057533,0.18567162078504496,0.18785755906470797,0.2302275874623823,0.14762710100873053,0.6160289209800174,0.958211858908692,0.03654208922443829,0.12421992304390117,0.6472590146249493,0.04566050170742343,0.6945069821324252,0.21318256021435963,0.3300618715625836,0.5438096422571043,0.3152448661063555,0.5430448033241267,0.45340306627574145,0.8263958836239758,0.20223382404526985,0.2079409060924792,0.5872608326952905,0.16630401393658117,0.15308194172290396,0.9611590682341414,0.577360097504804,0.5161182039937696,0.7578187420919104,0.5385911184610916,0.41956154934184947,0.933351586343155,0.1602651846826266,0.9772040250540575,0.1087120452586842,0.7683447170921932],[0.4535231034476565,0.03926407237321328,0.5848604471060519,0.6269152177362467,0.9741315715122671,0.17281403637970827,0.49635645686438795,0.4774664468067327,0.848036242896791,0.5517487588182446,0.3522773151338606,0.6953628384633374,0.7993494272669746,0,0.314488923743724,0.20443970897754554,0.4170750856954767,0.6772397963831609,0.004939644030234164,0.8780835125722899,0.9047830671434086,0.36702406177358915,0.8345414483235265,0.8702863417292042,0.6231065669659113,0.19245591430810233,0.8422246233935873,0.6446079862151707,0.1175794625789107,0.9641991778630594,0.5667776643167874,0.9846467661591182,0.48287120633652525,0.43807697356823333,0.9562343168998212,0.008871008538949256,0.09775246835384539,0.0668283449193043,0.38274168242789985,0.22282428427202808,0.2551050585777041,0.6176769301243331,0.9738226043534242,0.6563661063642016,0.7063046740958884,0.9521151154919736,0.5128606862297911,0.2522815156330397,0.4112252298855194,0.6933070271645154,0.16452515316370012,0.6069300120216773,0.6808385844790539,0.7255838625296522,0.7600885399164368,0.6928696176740271,0.6830702133633187,0.652038858250514,0.8743208545401475,0.9696305517987003,0.4118270845189038,0.8173899354811334,0.7255156410215756,0.1810996686056993,0.7597890616824966,0.1461101973393077,0.6616885150059273,0.5467759018226761,0.34267245925371675,0.5935040576468709,0.3332465700721545,0.4418722620992329,0.02319524790666132,0.6534425663560655,0.8957930452759623,0.9681735822180594,0.6909664407693267,0.8905963597641292,0.4570250475669647,0.3293139150567474,0.3618542015666886,0.06001143953388457,0.982525364375712,0.9559129832494728,0.27167925873377885,0.6714110241122411,0.5642131229906647,0.8404647120597389,0.036445216451806275],[0.7210178823880363,0.2682928712189999,0.31210717045377667,0.8443069845124135,0.9683567764312877,0.4879572339799397,0.19884210072718161,0.7257739783367908,0.9443755614439974,0.8023400745591885,0.6390692958175292,0.4442528561136004,0.9489598418483435,0.314488923743724,0,0.5161324288859219,0.6882189212743548,0.4253306883998589,0.32686274753561806,0.9757734281647745,0.9764797952862712,0.648661597707562,0.9430007791198243,0.9818179365115148,0.8437371867601605,0.4980368133102089,0.968342601916313,0.8615308367218983,0.18957696853588937,0.8828657559809925,0.7989761358731475,0.9574546293517595,0.7455622924650666,0.13841308817602122,0.98069016679153,0.3243742359822614,0.412716854938752,0.2402541996734282,0.6619158541376413,0.5303668409423123,0.5617454516104389,0.8465674240150362,0.9270835642687513,0.39225410722680515,0.9072279099487212,0.9688233301527751,0.7687875691435415,0.5564476358733547,0.6919802874871952,0.8882522315649563,0.14875511135971844,0.33974286768052436,0.8809875640543766,0.9097601998433966,0.9330133837420316,0.8988141079971667,0.8886073289354612,0.8686957510951031,0.9760623103341803,0.9022322439837837,0.10556411129821025,0.9531258040478392,0.9136322179419825,0.47443123089516864,0.9229222104643524,0.4546089427512611,0.8734927246519033,0.7841918007007136,0.6275321332775983,0.8326299390215,0.6160272144758888,0.7090125380735541,0.29302147250100014,0.8596420154006115,0.9775454172762384,0.9120309836440971,0.8896919390164603,0.9931331191577615,0.15803623717480353,0.6240507742797106,0.6391762565011059,0.3778711896094712,0.9482810047141503,0.964392974404861,0.037095018432039356,0.8635022998032335,0.27771296918555416,0.9524465878755788,0.35378850785337884],[0.2658705789553687,0.24569265903796791,0.7486925225407559,0.46778581917573675,0.9508780118555937,0.026144405809048442,0.6777741428391719,0.3051423931829287,0.7630727778441722,0.37128445879787864,0.15506476229721725,0.8410367074625709,0.679444394203123,0.20443970897754554,0.5161324288859219,0,0.229258654590706,0.82439275577023,0.19323680513649089,0.7901581641502626,0.8332781378086391,0.17372662180620246,0.741908029300494,0.7731027730539252,0.4616884170422261,0.019181240622544712,0.7364644890019657,0.4845846443617267,0.32412724556609734,0.9909530234036958,0.4003025680906475,0.9749550088748311,0.29715380987069695,0.6238805841255678,0.9138020050672774,0.190616490972122,0.09928876467216005,0.27373389584389285,0.19035846729884592,0.015626460890272222,0.04515718610313277,0.45011528187946753,0.9775940236328731,0.8114608731416254,0.5544478404016294,0.9151557175729466,0.33068862468689936,0.04558029229931394,0.21488796349746786,0.5468565250992099,0.37420889266835267,0.7665226628277821,0.5312760972187647,0.5850651902477203,0.6256577365321978,0.5380764672533385,0.5292261217233223,0.4917164339508439,0.7837871544222256,0.9870792862740371,0.6020285853569821,0.7063479019180989,0.5820425298330445,0.05611302519537447,0.6326272569190098,0.05412310339883909,0.5044683032312454,0.3775811458368188,0.14865290181174132,0.4194693471313798,0.14298808903625973,0.25553831510598335,0.2333629488198459,0.5011654584831217,0.8178799528028554,0.978409172879959,0.5417909512849023,0.7984812254464312,0.6413626047740812,0.12595403020608767,0.17389685357549575,0.13700570640842621,0.9775983440818333,0.924244400642731,0.47577180503947175,0.5287759008167284,0.7363843921269506,0.74491205735457,0.1607782820966721],[0.029494014556079893,0.4480620883784382,0.8528568958588536,0.2402241297628805,0.8270591245234563,0.2611149728001021,0.8099263302912881,0.07724370064151428,0.5869387160154483,0.13478627392443374,0.06893310685713243,0.9163623429915065,0.4748571786701974,0.4170750856954767,0.6882189212743548,0.229258654590706,0,0.9025596721799172,0.40832317654007844,0.6097566938710023,0.6666154445435137,0.048699348931183876,0.5594847747738143,0.5848029626241682,0.2327037096209248,0.22715917697840277,0.5419633319660656,0.25573648419578887,0.5177555927103349,0.9185077855523484,0.17026978817340305,0.8641214348930841,0.06049867308508849,0.7654703179819211,0.7721330135218556,0.40107160795652896,0.3192980366087868,0.4729474060156741,0.03237750253220831,0.20619997022371248,0.18085120612656644,0.21755189938538272,0.8809300790688349,0.9005464624637001,0.328947220432933,0.7790017458571211,0.09415073961814414,0.1771360125410533,0.024051571159026394,0.32574378043672547,0.5698010016760874,0.8640835911314542,0.3083627756251314,0.3671036088461498,0.4109837370834112,0.31104994858863516,0.303165366501065,0.2624270776635925,0.6012180403592603,0.904678091731507,0.7512659413143511,0.5084516517862601,0.3618369148944502,0.22898880185714734,0.42384568524690475,0.2702959488416655,0.2768759582773985,0.1466082828577211,0.073320796130482,0.18436695987222865,0.0792674608795863,0.01885954497777645,0.447706911556662,0.277436728676203,0.6457377797650563,0.8886512609666356,0.31874399758300254,0.613736286799085,0.7798035865175765,0.10188887739556825,0.048680393183529236,0.35490308520744585,0.871667124707514,0.7930648642386965,0.6544238729382386,0.311770706982324,0.8523793878206757,0.5595298139299885,0.3748189287891676],[0.9240331134020372,0.6339540182671672,0.11065603966827146,0.9529928794767937,0.7512491132602567,0.8073814877143085,0.23121041967051756,0.9004550599306114,0.8679327967431923,0.9662468693296901,0.8856113066799354,0.011525402552664682,0.9443565584707596,0.6772397963831609,0.4253306883998589,0.82439275577023,0.9025596721799172,0,0.6882280976978408,0.8954737684590655,0.8609490618002736,0.8857352000205178,0.8832337518558927,0.9192865062879035,0.9571138475627794,0.7993467897712501,0.9280667061972345,0.9664839568152669,0.5736001670144496,0.5823005725991476,0.9369196238393309,0.7142341655575482,0.9371359132188832,0.28418037083553804,0.8013356508588543,0.6794320024802902,0.7449728640110431,0.6124108782536918,0.8929012975184178,0.8289083123984593,0.8535158174822454,0.9712658270248892,0.6635589845156887,0.03593308467819253,0.981547948478882,0.7812335135263295,0.9463219156222388,0.8448651665279988,0.9200439250088278,0.9574402946791569,0.5558983053778772,0.08159228906527737,0.9587769140442691,0.9600523050537675,0.9635255163117641,0.9817028510231016,0.9726639242110477,0.9720221553523507,0.9012094413168336,0.6162609620435314,0.31751851262263414,0.9287045128591915,0.9687677478364478,0.764858887647345,0.9416262474306681,0.7689026967072966,0.9690728666556455,0.9322766085760819,0.8733030868871878,0.9745650456681816,0.8609968432694161,0.913677266555972,0.6687351026082384,0.9497827029501293,0.8753772204859845,0.6388849528047235,0.9639341505306936,0.9164314428369532,0.26663251398592075,0.8855970101884458,0.8718002434412249,0.7215099221191721,0.6974202009661739,0.7666917298758487,0.46230941970848866,0.9332712883725671,0.15460580636390345,0.8957223664100713,0.7019565915501854],[0.44488368340646894,0.051581937618719105,0.5964305936320746,0.6206246571486851,0.9767684701243586,0.16132764915935102,0.5084516517862601,0.4699302616789688,0.8468564081930458,0.5438385925703091,0.34267245925371675,0.7063046740958884,0.7959239664796326,0.004939644030234164,0.32686274753561806,0.19323680513649089,0.40832317654007844,0.6882280976978408,0,0.8767705093235494,0.9045031058584849,0.3577372892784333,0.8328718060250838,0.868393321642441,0.6166548928946692,0.18196110316031178,0.8397567098401376,0.6382920652568989,0.1299384019225607,0.9695978837142722,0.559865618182173,0.9880640964095669,0.47444006264911526,0.45026175215847203,0.9577434827560379,0.006323541462872979,0.08673762816301984,0.07920608509711832,0.3735699563649488,0.21197846684935084,0.24422993837092763,0.6107970189227216,0.9779773897175922,0.6676564057759434,0.7006475613470293,0.9539362459376012,0.5047488107256081,0.24164203441821697,0.4018496009576275,0.6879848815631615,0.17664539172991434,0.6183573609604901,0.6752883761551377,0.720708179602846,0.7556676831790767,0.686992780081933,0.6772397963831609,0.6457166039327986,0.8728427132737439,0.9745314582612616,0.42410216986606597,0.8145524293314299,0.720446582668101,0.1720094938004029,0.7558349728530189,0.13560679159950498,0.6555931050809708,0.539634527015764,0.3332465700721545,0.586129074627825,0.3240149163518063,0.43329414702778685,0.03290840062150947,0.6476602910888362,0.8951142996843736,0.9726780362307288,0.685460507250237,0.889045365567294,0.46918080431529335,0.31919056136447543,0.35289495424184314,0.048869663499380864,0.9862070061796726,0.9580443716554545,0.28403074709951925,0.6662949466814191,0.5760614651600137,0.8386256920171767,0.026239316507836112],[0.5894127475656343,0.8794341616048608,0.9262053725356033,0.39823068044537735,0.30630770916595024,0.8102686006797375,0.9650988553729227,0.529067496674857,0.023983924104942544,0.5151968270136728,0.6732375841404451,0.8978144756418893,0.15962955746817595,0.8780835125722899,0.9757734281647745,0.7901581641502626,0.6097566938710023,0.8954737684590655,0.8767705093235494,0,0.07247318835838584,0.6539478797796359,0.04294621621582675,0.03496557603739585,0.408532964468931,0.7725191522725152,0.08211656246060065,0.3923765366710296,0.9076895873419024,0.5114047408279042,0.4570250475669647,0.3684193663782558,0.5677569978059179,0.9572340723575872,0.21772207421093906,0.8637453658378252,0.8270438249062552,0.8895152156885412,0.6424751213928481,0.7709720811629671,0.7610928798466655,0.4343430086671729,0.41903298548988765,0.9214984993923307,0.33118856357308935,0.23797572734601563,0.5401146822406574,0.7527621462212927,0.6405487197016284,0.3163935415002919,0.946968703517585,0.9175627935877171,0.3345557017007492,0.2771976017678341,0.23638383709716707,0.3490775893702246,0.34980799317427025,0.3899047151535817,0.005025304153898099,0.47466080391529514,0.9656566313107243,0.11564973256718146,0.2887417110540583,0.7487305131502879,0.2084737545780984,0.7946581971898744,0.3732458938496386,0.4774423106858075,0.6700414058287755,0.47090546985541876,0.6670572606670645,0.5913775064412201,0.9022532964838376,0.35923758620180696,0.04192221143243509,0.4433498057600246,0.32788280751843724,0.013801342994421454,0.959519904572558,0.7040636757627513,0.6433797864895086,0.8464478157471773,0.38716674989356853,0.2617915844496815,0.9674753841457012,0.3153602471873326,0.9549980861411513,0.04558029229931394,0.8529805593846501],[0.6489988090239804,0.902184289248101,0.9009236935154282,0.4676357935992051,0.22763489156158861,0.8511150616554873,0.9490321485483049,0.5885850462591774,0.07862701333814537,0.5813869903267187,0.7262164234971397,0.8617609895533984,0.2374636252269898,0.9047830671434086,0.9764797952862712,0.8332781378086391,0.6666154445435137,0.8609490618002736,0.9045031058584849,0.07247318835838584,0,0.7076450093189727,0.1140663756121456,0.1147648836476881,0.47794234127097185,0.8140332289855191,0.16148518279330232,0.4632710328251291,0.9240331134020372,0.43953849952637924,0.5226916032478665,0.2907287363653637,0.6293458786944124,0.9461356039713681,0.13804058034887848,0.8911506523586825,0.8616740772953381,0.9099747742517577,0.6972496125975135,0.8152148721822915,0.8079036189087666,0.5040690942742506,0.3435617247738407,0.8896919390164603,0.4057536424028014,0.1589403525974723,0.6035768028287599,0.7991146563726427,0.6978547882754368,0.3893393273694458,0.9603293893562612,0.8900274989173467,0.40693385836576496,0.3519103672036151,0.3129949318262798,0.42297644937301654,0.42288992369880685,0.4613957623793907,0.08493538280223238,0.40121482820427656,0.9572020874072339,0.1936816671758338,0.36381387442482405,0.7878644867993736,0.2840343973727649,0.832610941281401,0.44510708645815217,0.5419129791576502,0.7220103813864818,0.539523662104671,0.717991173638397,0.649938196144098,0.9273078207383311,0.4297968034781304,0.023229959922391758,0.3690529139089839,0.4010064912423026,0.08688438095399123,0.9467925530200977,0.7558907279303594,0.6961601943862654,0.878264919360329,0.3101366497938135,0.18312037518788765,0.9717711973566727,0.38583796477880944,0.9325211325584355,0.1213439480946215,0.8828000264246212],[0.08482013200382847,0.40025559666658844,0.8297017497987671,0.29481146173688305,0.8582789224034127,0.2060056563761559,0.7800927518138601,0.1306182582754287,0.6299487571607385,0.19084735206097672,0.013294362062017128,0.9002816041834961,0.5245267994542081,0.36702406177358915,0.648661597707562,0.17372662180620246,0.048699348931183876,0.8857352000205178,0.3577372892784333,0.6539478797796359,0.7076450093189727,0,0.6039441023591873,0.6308545074795474,0.28762241086336743,0.17314427677374924,0.5893824425601323,0.3106856125992969,0.47234017286146923,0.9376629112098595,0.2252374479010892,0.892343353577176,0.11620169869332327,0.7332179465892122,0.8074754960183443,0.3512613728674167,0.2669002425974132,0.42600133013805946,0.009193992461588038,0.15071145261630772,0.12475220265812452,0.27325291973010335,0.9057797317129965,0.8811683779877704,0.3832893875766364,0.8130197784545105,0.15021958183591183,0.12126957208827792,0.0369274651359611,0.3790016568650038,0.5243767757911574,0.842522594724333,0.36201262503886117,0.4197184965014381,0.4629341263726284,0.36570623551698395,0.3575740954183654,0.3174955929603365,0.6459120470811014,0.9261780225708129,0.717200220509813,0.5565796974000738,0.4149922726309819,0.178514307541917,0.47436277931291954,0.21743837795754462,0.3315810796659043,0.20173086066958557,0.01774349949868493,0.24046029508766276,0.026396909379096525,0.07492530462803733,0.39757972852363765,0.3311791375958929,0.6880338375588548,0.9118585547292234,0.37246253506259297,0.6590246417734628,0.748354744304291,0.04655464759276717,0.007791499153333974,0.3032852331022811,0.898729575459227,0.8259274708732599,0.6132085201472516,0.3638998395778929,0.8264979550187573,0.6047371343594986,0.3240823184476481],[0.5390332529721251,0.8373231494996737,0.9079127835486077,0.348925357880459,0.33944854774164823,0.7625409732438231,0.9412180978507526,0.47869361138687017,0.029030170583659642,0.46523566109658726,0.6233090160937328,0.8865972124882372,0.11719590686719976,0.8345414483235265,0.9430007791198243,0.741908029300494,0.5594847747738143,0.8832337518558927,0.8328718060250838,0.04294621621582675,0.1140663756121456,0.6039441023591873,0,0.0314856929507523,0.35923758620180696,0.7246674222400583,0.048299924462212325,0.34358294247122884,0.8680397476011605,0.5327336327142597,0.4069569662550726,0.3990481392823967,0.5173908185345387,0.9306073913929929,0.2546792041222352,0.8199811487538794,0.7810000954958866,0.8482588350132205,0.5923627939156058,0.7224886337308476,0.7120888468081756,0.3851664658441977,0.4457085506037783,0.907366321328004,0.2843991941281976,0.2727331456970904,0.4898414559783334,0.7038542952839492,0.590242862883454,0.26850887066701085,0.9084833139563662,0.9007046374157358,0.28637937586635004,0.23049603523275655,0.19163989725136102,0.30181624611671604,0.3020329131646707,0.3413571880693194,0.034638129652990235,0.4981883396162844,0.9375818537244518,0.07436795677769174,0.24235009820942402,0.7015185157445093,0.16253376229011107,0.7477055047701883,0.32485165712972186,0.4272391672529296,0.6202450831403739,0.4214312014390929,0.6174113612620674,0.5410232972595493,0.8592554095770909,0.3102840255987955,0.08596624089400641,0.4682177179261544,0.28011320421024444,0.04930258930178983,0.9337812336814846,0.6542679264116168,0.5934916642578734,0.8012435601209724,0.41649323069692334,0.2954198261608338,0.9330032018450548,0.266325662631558,0.934901916187649,0.005609187601643433,0.8084149832826966],[0.5627464904970121,0.8738489400150128,0.945516162850059,0.36550944371155475,0.34863862793153605,0.7945043132226292,0.9797648222395045,0.5027173722058272,0.04739543254357206,0.4842991253604675,0.6505270575705806,0.9223410869787262,0.12096335143612721,0.8702863417292042,0.9818179365115148,0.7731027730539252,0.5848029626241682,0.9192865062879035,0.868393321642441,0.03496557603739585,0.1147648836476881,0.6308545074795474,0.0314856929507523,0,0.3757529865893109,0.7564828743156665,0.04215874660690587,0.35852891002378057,0.9055560140473495,0.5517183152829995,0.42676650948256756,0.4105486984417927,0.5398348048961857,0.9694160114099337,0.26011076549150436,0.8555943579658571,0.814872072878144,0.8851715848298032,0.6187380792648594,0.7533049825733975,0.7419023499404309,0.4011966029605187,0.4605667170391148,0.9439629998481206,0.2946177943880225,0.2803609992532885,0.5110252380190399,0.7338784390913241,0.6151853383891163,0.2813058396777512,0.9463453414574344,0.9379870716556072,0.2998316688622758,0.24080769311262,0.19842906492833728,0.3129949318262798,0.3144095955516556,0.3555983246974334,0.022599006744236372,0.5155326158526822,0.9764700631981728,0.07748208234712312,0.25194538316425324,0.7341955534734231,0.1718671409598999,0.780654563937308,0.33872702102175734,0.44793360243407226,0.6479801613852256,0.43843027661322326,0.6456579595832249,0.5653826108814903,0.8953087841706473,0.3258427578395146,0.08412558088492443,0.48451760554532747,0.2925714198789685,0.024687114438866477,0.9725206214263953,0.6819676482876775,0.6209108804259794,0.8358369323855089,0.42913442928858814,0.30413325256911294,0.9716516709406593,0.28235041760491375,0.9728679859523738,0.022599006744236372,0.843492156446986],[0.20108386866661956,0.6446161446947276,0.9355892560557872,0.0028766873339318277,0.6768791876046002,0.49102961862893046,0.921692041570616,0.14997644956275666,0.39242443364091745,0.1043905222249576,0.30830886629189935,0.9672843835375923,0.2526131223688383,0.6231065669659113,0.8437371867601605,0.4616884170422261,0.2327037096209248,0.9571138475627794,0.6166548928946692,0.408532964468931,0.47794234127097185,0.28762241086336743,0.35923758620180696,0.3757529865893109,0,0.4540951589200272,0.32803507327634585,0.015626460890272222,0.7025697432855227,0.8183902930525342,0.0549983030361486,0.72595534060063,0.17208655445865217,0.8887426801811162,0.6054388755957056,0.6068174363059101,0.5373797452530514,0.6653088149686335,0.2720601816870202,0.4389334886427917,0.41735569596459526,0.01881905589891258,0.7571163109509402,0.9658151563032585,0.08954281244328266,0.6180495576971295,0.1384422642483922,0.41215177777750855,0.2579907663213262,0.09117468652242003,0.7527215578316981,0.9397982983322559,0.07236660440364155,0.13424663482393875,0.17988246139376374,0.07106275989250045,0.06380114844064726,0.02259900674423636,0.39795520339011436,0.7947696119801704,0.8824067427830383,0.29243662717900903,0.12648736203433278,0.4457085506037783,0.19951666675813093,0.49181660437165664,0.036927465135961096,0.07867644763830749,0.3105651897488287,0.05530428232189847,0.3132836715824683,0.20791126474056143,0.6529787542307394,0.04294621621582675,0.4519879644350209,0.7718163188882671,0.0819738836786316,0.40721106804435925,0.899274202446661,0.3415493071886557,0.28311307816993053,0.5689156028748908,0.7383785272350218,0.6367925959512187,0.8177561864231816,0.08596624089400641,0.9463631893266455,0.3555983246974334,0.5849215182556965],[0.2640778849761953,0.2312460827656945,0.7248679461506241,0.45973164563821656,0.9279313579642842,0.030851847296711452,0.6558225334779304,0.2990272963698086,0.7450364936222438,0.3679576753048943,0.15610246253444815,0.8158922891587216,0.6655064731239779,0.19245591430810233,0.4980368133102089,0.019181240622544712,0.22715917697840277,0.7993467897712501,0.18196110316031178,0.7725191522725152,0.8140332289855191,0.17314427677374924,0.7246674222400583,0.7564828743156665,0.4540951589200272,0,0.7207973056932708,0.4768099550857456,0.30850087630467427,0.9654838643256209,0.3934899880398291,0.9511999233656874,0.2949557512487174,0.6026270675078436,0.8921742471759929,0.17770580253552248,0.08828398376219106,0.25884318877828505,0.189598568696538,0.02495098097028194,0.05649692252568964,0.4438569625078668,0.9531136200612953,0.7869073912814281,0.545336145353671,0.8931139817005757,0.32760664945515866,0.05252975215083555,0.21613349738671764,0.5366919078130723,0.3593768367468268,0.7423452108385031,0.5216208136705452,0.5740101919876588,0.6137431379619442,0.5294718979328973,0.5203926665093946,0.4840415834850279,0.7664236796120251,0.9619759644330246,0.5814719084662315,0.6912756219835993,0.5714923933874699,0.029494014556079893,0.6195938502614657,0.03892108974975252,0.49620226690670666,0.3712704120068961,0.14801770269425732,0.41464959938961066,0.1405278234315468,0.2531852749744882,0.22230619557253756,0.49188692478669194,0.7992412828710155,0.9536174651037335,0.5321108652908788,0.7813360337135652,0.6198669755194257,0.13030964862508412,0.17107621139433712,0.1259061650793674,0.9535765029563863,0.9018333239813637,0.4584659560170322,0.5178366192374275,0.7133136272158676,0.7280197093559438,0.1485915439450901],[0.5186623770039728,0.848021318448705,0.9482453802747455,0.3178457600457131,0.39246966440061065,0.758984328182554,0.9765349419673227,0.45900914081794547,0.082401240239092,0.4374914971909175,0.6093221321781437,0.9320943062485525,0.07138736853861935,0.8422246233935873,0.968342601916313,0.7364644890019657,0.5419633319660656,0.9280667061972345,0.8397567098401376,0.08211656246060065,0.16148518279330232,0.5893824425601323,0.048299924462212325,0.04215874660690587,0.32803507327634585,0.7207973056932708,0,0.31027397942009877,0.8832540588890145,0.5884243676135962,0.3804773101103458,0.453045077522251,0.4948929184136009,0.9631748082933038,0.30571030445942227,0.8272121052706748,0.7826554662266128,0.8605985839941312,0.5767776181619207,0.7161643664494226,0.7034548058420371,0.353234352407849,0.5007364381160686,0.9508580275769049,0.2453267201172933,0.32492529191117503,0.4653346909019666,0.6957124549246555,0.5719700194810321,0.23259735413797356,0.9255624364039696,0.9421866064767334,0.25125535748455863,0.19163989725136102,0.14889128680625302,0.2638426703945428,0.26551220249909946,0.3071239058277051,0.06980579062547006,0.5537050859253574,0.968570459554484,0.028323125789191345,0.20262925005420054,0.6999440095153789,0.12278170485498249,0.7467863202957004,0.29017871143446633,0.40209388202657015,0.607310884552561,0.3907740026408278,0.6055430260765426,0.5217917226901372,0.8680494697585653,0.2778920092191005,0.13125643256678698,0.5235579009113086,0.24374329578738535,0.0742638446732419,0.9672647356379,0.6411985972331584,0.5799686731799315,0.8050761960764056,0.47088767565981693,0.34816023090760945,0.9560841536869038,0.23475073562322693,0.9736794708064967,0.036323823929907545,0.8138117245176331],[0.22394436291468078,0.6655412549514873,0.9474423647963023,0.01030812836583652,0.6663281087025116,0.5138208929078772,0.9359626248100862,0.173026403149622,0.3774291309114974,0.12569055904240656,0.33137074758760315,0.9763046029698466,0.2338176114728646,0.6446079862151707,0.8615308367218983,0.4845846443617267,0.25573648419578887,0.9664839568152669,0.6382920652568989,0.3923765366710296,0.4632710328251291,0.3106856125992969,0.34358294247122884,0.35852891002378057,0.015626460890272222,0.4768099550857456,0.31027397942009877,0,0.7226620685666176,0.8130703510411316,0.07804401892929241,0.716652357505389,0.1947316600900493,0.9040059627917506,0.5931215152578034,0.6283308856769217,0.5596255102592865,0.6859440218564461,0.29511403857564183,0.46185167982195335,0.44038034024024547,0.03627517253067819,0.7493676267413276,0.9760936819407463,0.06708576836385262,0.6064119927837607,0.16084784134106697,0.4351442506099754,0.28087809250077794,0.07111695448372615,0.7725914467588492,0.9510467513714054,0.05215600617025163,0.11401382556063135,0.15964866146705095,0.04826173465258326,0.04157612262358012,0,0.38154003400427106,0.7884528965862717,0.8982938730126871,0.2745538227638432,0.10548876392697507,0.4680499282281568,0.1807890392608551,0.5142758621600386,0.014442863891163836,0.10169406795080137,0.3336242399616223,0.07477014580747005,0.33630893079982527,0.2308847473968563,0.6743901581567117,0.026112709245160484,0.4367184448263581,0.7648079132675665,0.06106014353584242,0.39022055310102993,0.9142130606168687,0.364609724044767,0.30616185739151575,0.5909207066173476,0.7296020851737522,0.6256610976181617,0.8361636455500786,0.06999838476499445,0.9591237140317477,0.3393626573753914,0.6067031075416072],[0.5528664113515395,0.07192543256436447,0.4737153204578088,0.7049543497346914,0.963259208986675,0.2942688798836022,0.37751205558522,0.5678365300965174,0.8766658180558403,0.6441770734126007,0.46005265334221535,0.5922261930950373,0.8498054325412906,0.1175794625789107,0.18957696853588937,0.32412724556609734,0.5177555927103349,0.5736001670144496,0.1299384019225607,0.9076895873419024,0.9240331134020372,0.47234017286146923,0.8680397476011605,0.9055560140473495,0.7025697432855227,0.30850087630467427,0.8832540588890145,0.7226620685666176,0,0.9241381919657684,0.6508132091695004,0.9655527561046071,0.5802402996835037,0.3178817371654205,0.9570873740352774,0.12823169850395888,0.21847685586388563,0.04361747727615545,0.48700489910452976,0.3403215821230238,0.3723813091414217,0.7008413662300262,0.9470411610565008,0.5487516335865388,0.7779525750086205,0.9498293846654915,0.6073524200088032,0.3681815105590796,0.5166117850115454,0.7621360029600927,0.04462857688547925,0.4976999254513631,0.7518210578614696,0.7900754554243343,0.8201032966987326,0.7665886446060314,0.7564870525410888,0.7300653162040366,0.9055606753911842,0.9349075614132678,0.289949830414247,0.8621636104358631,0.7917399853852187,0.2896348310776833,0.8155471864422478,0.26329304164880357,0.7376477736614885,0.6329712498925117,0.4493333138250504,0.6810827797382221,0.4386998399014158,0.5408971907639394,0.09671568224406926,0.7267730900506703,0.9190488246775148,0.9377158199850366,0.7614458185819759,0.9223788481567704,0.3372825233579611,0.44094543501542366,0.4648956509183492,0.18233710158529798,0.9606723362360583,0.9504160464386179,0.1466704303560939,0.7386709134634383,0.4490327380708254,0.875523034705775,0.15807481077958305],[0.9174075018652781,0.940369840971725,0.6702329736261787,0.8093586002926184,0.22376496276438124,0.9942808682712087,0.7644951048841354,0.8646437551018411,0.49967383866091347,0.892748842943695,0.9500772042231715,0.5741053350112638,0.6484913049958991,0.9641991778630594,0.8828657559809925,0.9909530234036958,0.9185077855523484,0.5823005725991476,0.9695978837142722,0.5114047408279042,0.43953849952637924,0.9376629112098595,0.5327336327142597,0.5517183152829995,0.8183902930525342,0.9654838643256209,0.5884243676135962,0.8130703510411316,0.9241381919657684,0,0.8385766470645271,0.1623396053053341,0.910701634526931,0.7901354868046714,0.31029742000961685,0.9562045069471228,0.9698243599710489,0.9345766940974148,0.9342750857879588,0.9811864148222404,0.9886314434524016,0.843021900676761,0.09959735391717127,0.6229091164634961,0.7812874731807207,0.2855199139945811,0.8979061447654278,0.9784480240889368,0.9482253409439957,0.7584510738845878,0.9392061803760721,0.6478632725793819,0.7710622861397727,0.7342816244747676,0.7094044776435792,0.7930808132662935,0.7886868023255319,0.814500653499036,0.5227457883213582,0.036080023035288164,0.8146559712136262,0.6108933842375384,0.7466142012091928,0.9301808286363843,0.678948550792359,0.9624982414282998,0.8020220542756334,0.849245501663973,0.9410610704773806,0.8685743060293094,0.9321214839942107,0.9128591175999063,0.9748337035784674,0.7820950778966347,0.4676873002563009,0.0695989054576658,0.7695739341850197,0.5301293907211981,0.7814857432067439,0.9699386669951616,0.9228730349407976,0.9690031336170671,0.14024712804714323,0.261621602474103,0.8988082379368039,0.7438421875878972,0.7136530649544153,0.54476420120653,0.9620911967795311],[0.13903182928988614,0.5902108197514444,0.9083206734875482,0.06273276256711156,0.710850128304003,0.43008384510819664,0.8873834904225454,0.08791648445447649,0.43843743526658363,0.05136521705661092,0.24591112877605598,0.9480583301769105,0.30767811716716903,0.5667776643167874,0.7989761358731475,0.4003025680906475,0.17026978817340305,0.9369196238393309,0.559865618182173,0.4570250475669647,0.5226916032478665,0.2252374479010892,0.4069569662550726,0.42676650948256756,0.0549983030361486,0.3934899880398291,0.3804773101103458,0.07804401892929241,0.6508132091695004,0.8385766470645271,0,0.7566318835638384,0.11080010088171895,0.8515573539845319,0.6440203071791893,0.5504687000248766,0.4785119236812406,0.611835596322798,0.20963357529488216,0.37745677445450737,0.3553432649786045,0.04351317568933683,0.7837548813587183,0.9430063762417309,0.15153008615441788,0.6549284377323372,0.07837941469654615,0.35031987553747673,0.19582857703509646,0.15044212417024486,0.7016010507121743,0.9142673154878408,0.1322729712461659,0.1930086960773369,0.23815774330963252,0.13338797722526877,0.12572252270557782,0.08482013200382846,0.4470800026491178,0.8176117688478324,0.8433658632748862,0.3453817830775649,0.18644142339214817,0.38659203321935853,0.25497129307591165,0.43219196422018424,0.0992089837895326,0.01630831871516251,0.24831861908133213,0.030207330934107133,0.25129648195085963,0.14556877497209708,0.5969201993627742,0.10145983660059578,0.4982451502752527,0.7965144179429116,0.14241408995781082,0.4575470347619052,0.8630330760088807,0.27914215754087385,0.22096857137843723,0.5108877279236173,0.7676861414032917,0.6723554378480552,0.7711429150749604,0.14020389677602285,0.9164314428369532,0.4046087790412084,0.5276675803670138],[0.8564864450901477,0.9680950598812197,0.7879220096750646,0.7161643664494226,0.05774937692296053,0.9839075823365364,0.8684868551557922,0.7992518341820046,0.3633579263804308,0.8140254579100161,0.9074837801044577,0.7089056082457482,0.5218419795459399,0.9846467661591182,0.9574546293517595,0.9749550088748311,0.8641214348930841,0.7142341655575482,0.9880640964095669,0.3684193663782558,0.2907287363653637,0.892343353577176,0.3990481392823967,0.4105486984417927,0.72595534060063,0.9511999233656874,0.453045077522251,0.716652357505389,0.9655527561046071,0.1623396053053341,0.7566318835638384,0,0.8444718548392205,0.8846720172914727,0.14936018426754263,0.9743266585669274,0.9721014490548494,0.9671970565071858,0.886130590738157,0.9617619251556189,0.9637271160745912,0.7518210578614696,0.05530428232189847,0.7518560894785664,0.6732829118251156,0.12572252270557782,0.8261725588753298,0.9538222496576956,0.8952062430275467,0.6526065027095047,0.9888493213844606,0.768947920722248,0.6676248850801436,0.622228535249458,0.590685950087349,0.6876665835472623,0.6849935571297386,0.7167463902658952,0.38057877788417105,0.11895904346362034,0.9050431208524473,0.48053075214549434,0.6346818228792594,0.9183871286355265,0.560098125861945,0.9563425082405822,0.7023749114008583,0.7710212851733672,0.9000999089070295,0.782058692792607,0.8928256643672319,0.8539852849823777,1,0.683837114818337,0.32085733502377,0.08533763313589564,0.6642436238434333,0.38478688619495044,0.8791077932940893,0.9316729506145778,0.8784378819574943,0.9778262209063443,0.014780627451559765,0.1009898559168511,0.9663320963616046,0.642155816059498,0.8283751168453422,0.4096925640483841,0.9750329829420203],[0.023983924104942544,0.5123942449448742,0.8942002506793543,0.1805741228377291,0.8034193608565268,0.3290515794019538,0.8580306331462096,0.03862177228376827,0.5470369251912273,0.06758378541045408,0.1358594556326234,0.950093871397928,0.4241218931383263,0.48287120633652525,0.7455622924650666,0.29715380987069695,0.06049867308508849,0.9371359132188832,0.47444006264911526,0.5677569978059179,0.6293458786944124,0.11620169869332327,0.5173908185345387,0.5398348048961857,0.17208655445865217,0.2949557512487174,0.4948929184136009,0.1947316600900493,0.5802402996835037,0.910701634526931,0.11080010088171895,0.8444718548392205,0,0.8160202118377111,0.7428615515100714,0.46675932445850626,0.386454300574533,0.536637156134297,0.09961723235546403,0.2741007020872238,0.24831861908133215,0.1541192066861541,0.865786155146786,0.9378205030892661,0.26906737087460614,0.7516206459388834,0.027358058081270023,0.24488857950169143,0.07995192472811326,0.2686746126984373,0.6321616580346301,0.903756121903876,0.25049337216623924,0.31115349098243994,0.35613424558818463,0.25043149089021244,0.2433151176756536,0.2009613768028199,0.5584384840062756,0.8938745074496149,0.8035453152210166,0.4603438738338452,0.3046791391464751,0.2955357338203361,0.371859929332813,0.3377020192472836,0.21641409448325646,0.08737939735364286,0.1411091113835439,0.11879058125413046,0.1471735925703447,0.03433359325607784,0.5134942127416381,0.21969802666283791,0.6065904902252793,0.8756664152906297,0.26059150796245933,0.5698839381960997,0.8295492240976102,0.16810727629344435,0.11645099872399262,0.4216494580730502,0.853570189980835,0.7672701272524954,0.7132531019599019,0.2575615194159878,0.8964677500372173,0.5161730693055309,0.4410782950216472],[0.7949963728608637,0.3914974064230669,0.168101215376342,0.8876711834501155,0.9042977462800138,0.5992430612661407,0.05348028505607549,0.7895910369434287,0.9263797097305655,0.864264249772273,0.7268730713455032,0.30288435487033244,0.9555108891757641,0.43807697356823333,0.13841308817602122,0.6238805841255678,0.7654703179819211,0.28418037083553804,0.45026175215847203,0.9572340723575872,0.9461356039713681,0.7332179465892122,0.9306073913929929,0.9694160114099337,0.8887426801811162,0.6026270675078436,0.9631748082933038,0.9040059627917506,0.3178817371654205,0.7901354868046714,0.8515573539845319,0.8846720172914727,0.8160202118377111,0,0.9292726019768248,0.44506476592809585,0.5269214498054351,0.36523547354995245,0.744579655046391,0.6347911709307368,0.6644210090438372,0.8956399007418203,0.8471104342240655,0.2486553572890141,0.9400700767233395,0.9144358315302615,0.8347701336464011,0.6577254944583211,0.7743449229086633,0.9188501357739691,0.28646626983670814,0.19650267688000952,0.914411594818196,0.9343055898947653,0.9512665122518185,0.934447929330803,0.9244076871417373,0.9107723190885757,0.9593658497657208,0.8145472518949488,0.026144405809048442,0.9529984183678841,0.9399521659222918,0.5740266601634868,0.9368576568158543,0.5629703629998221,0.9129654718521341,0.840009097617798,0.7147411400891701,0.887466716921081,0.7026176937040032,0.7832800462153561,0.42136421406427066,0.8968631542898128,0.9516981180501679,0.8286525736721537,0.9220893065892253,0.9762029338635166,0.012402786030406222,0.717024009519936,0.7218236612451879,0.4955871495452377,0.8728342527134434,0.9065914132516953,0.1800811498203718,0.8936773520112731,0.13190695537690061,0.9413167874688144,0.4725929106240413],[0.7590898241192887,0.9468315765035826,0.8583084173844063,0.5952719231589874,0.08441561543147386,0.9275536441852482,0.9228901894884193,0.6995332809477058,0.21821296946718702,0.702680623714601,0.8246024924113176,0.7991608245860997,0.379309892815456,0.9562343168998212,0.98069016679153,0.9138020050672774,0.7721330135218556,0.8013356508588543,0.9577434827560379,0.21772207421093906,0.13804058034887848,0.8074754960183443,0.2546792041222352,0.26011076549150436,0.6054388755957056,0.8921742471759929,0.30571030445942227,0.5931215152578034,0.9570873740352774,0.31029742000961685,0.6440203071791893,0.14936018426754263,0.7428615515100714,0.9292726019768248,0,0.9440491047067231,0.9274341547499653,0.950493796593819,0.7989708584312479,0.8978885168086885,0.8949551448370082,0.631687396559292,0.20728785115290205,0.8347991886608732,0.5415429380989771,0.017360325229663,0.7203676466957114,0.8855386304727121,0.8036214031708362,0.5230607548328361,0.987494287114179,0.8433220939401769,0.539634527015764,0.48850673372213343,0.45254342520099095,0.5576331956695036,0.5563797064720521,0.592135700093898,0.2301514721166406,0.2689134145892728,0.9450192028391684,0.33623154341350325,0.5007573743416112,0.8624804362108688,0.4226104505436291,0.904472771559328,0.5765827220288454,0.6611540433352286,0.8188282124751876,0.6650430708962397,0.8132000100993646,0.7584010622575044,0.9755396636134916,0.5596311389522073,0.1687002344669346,0.23531239471841311,0.5348213632694536,0.23215369811350803,0.9269013874240131,0.8519622791529888,0.7947019691316342,0.9389555141716688,0.1702757751315222,0.04157612262358012,0.9825447094022077,0.5162705934453126,0.8946426481075203,0.2638073706148952,0.9399925941357647],[0.43747714932886833,0.048869663499380864,0.588925898624924,0.6106403932418639,0.9630070812359035,0.15957223235992735,0.5027632519342565,0.4611869357767399,0.8337829308177036,0.5355174490962031,0.3366986983484775,0.6974202009661739,0.7838732094899913,0.008871008538949256,0.3243742359822614,0.190616490972122,0.40107160795652896,0.6794320024802902,0.006323541462872979,0.8637453658378252,0.8911506523586825,0.3512613728674167,0.8199811487538794,0.8555943579658571,0.6068174363059101,0.17770580253552248,0.8272121052706748,0.6283308856769217,0.12823169850395888,0.9562045069471228,0.5504687000248766,0.9743266585669274,0.46675932445850626,0.44506476592809585,0.9440491047067231,0,0.08395111833767334,0.07718085699887776,0.36691892007337784,0.20845404290135805,0.24074339683273574,0.6013683521524185,0.9643185260680115,0.659469891350217,0.6901219681225028,0.9402115503188923,0.496668916429124,0.23763299770822008,0.39550176166732676,0.6771931766302377,0.17675517332035245,0.6104923368800479,0.6646759182504556,0.7095840450130315,0.7442287051080134,0.6766490447617353,0.666856901370945,0.6357612338107789,0.8598788030359584,0.9610107672422127,0.41952915623947146,0.8021876506725252,0.7094638437341236,0.1653091232213594,0.7440956409289851,0.1314480790983227,0.6454363667230695,0.5304697034862089,0.3269900275111733,0.5772090726648262,0.3174628477809135,0.42580736838812283,0.03933236707485134,0.6372366966290511,0.8818769098054184,0.959076380414994,0.6748129045533817,0.8761096634802682,0.4638131945009918,0.3141185580792766,0.34593922030332996,0.04684942363452033,0.97249130691152,0.9442984293737656,0.28211534868133764,0.6553459395285232,0.5693806067032968,0.8258036229621398,0.022599006744236372],[0.35616058197393946,0.13948874433120276,0.6615358523869632,0.5421705045820776,0.9548211941437855,0.06837380820635783,0.5828361471320069,0.38598673063877653,0.798178850624068,0.45783067667886057,0.2508231552234987,0.7623640841037354,0.7330283051703266,0.09775246835384539,0.412716854938752,0.09928876467216005,0.3192980366087868,0.7449728640110431,0.08673762816301984,0.8270438249062552,0.8616740772953381,0.2669002425974132,0.7810000954958866,0.814872072878144,0.5373797452530514,0.08828398376219106,0.7826554662266128,0.5596255102592865,0.21847685586388563,0.9698243599710489,0.4785119236812406,0.9721014490548494,0.386454300574533,0.5269214498054351,0.9274341547499653,0.08395111833767334,0,0.16770680587511927,0.2830837820921855,0.11781752669851427,0.15005753535747662,0.5293767721036249,0.9679238156423675,0.7284391173018022,0.6252223250174083,0.9259546345281929,0.41800139751716847,0.14762710100873053,0.3105651897488287,0.6144620900393221,0.26792219225477965,0.6813006277157401,0.6005604268154611,0.6495561248377472,0.6869866515970748,0.6104389590273018,0.6009767647611645,0.566985148354414,0.8220346949690369,0.970579627303181,0.5032280728967473,0.7552269781605823,0.6481960261831133,0.08455450721178213,0.6899221328573536,0.042244480193375136,0.5780092421102195,0.45724032385354973,0.2420219088880888,0.502410706245413,0.23353520355355958,0.3448657458739921,0.12702649108817923,0.571793711094063,0.8495857250118257,0.9654827707659894,0.6109295173589212,0.8376757262419336,0.545072392829437,0.22598160248624555,0.26331269045949796,0.03043275466786773,0.9723360339309349,0.9323615199468748,0.37139400589218496,0.5940420384681843,0.6455846467402089,0.7856071075377971,0.05405393348986483],[0.5085671307179083,0.020885330152204507,0.5162157383515465,0.6681999063059797,0.9614852505173861,0.2435186993583795,0.4241218931383263,0.5264892126690965,0.8588035372575856,0.6023392412499541,0.4129624137871758,0.6308145014665052,0.8234854193037726,0.0668283449193043,0.2402541996734282,0.27373389584389285,0.4729474060156741,0.6124108782536918,0.07920608509711832,0.8895152156885412,0.9099747742517577,0.42600133013805946,0.8482588350132205,0.8851715848298032,0.6653088149686335,0.25884318877828505,0.8605985839941312,0.6859440218564461,0.04361747727615545,0.9345766940974148,0.611835596322798,0.9671970565071858,0.536637156134297,0.36523547354995245,0.950493796593819,0.07718085699887776,0.16770680587511927,0,0.4410189873825299,0.2904181328143325,0.3225866211714059,0.6622845198964098,0.9518744768529454,0.5895303877124081,0.7436438963182904,0.9445007480206692,0.564748892650557,0.31870485338296195,0.4703579952196208,0.7288105998319361,0.093129720380326,0.5392356973581205,0.7176933834777619,0.7583955052084498,0.7901408227087006,0.7315108615492181,0.7214953263152476,0.6933738295735523,0.886743576776265,0.9430836131583193,0.3383303088123342,0.8380281559524839,0.7594298109030256,0.2416633910388708,0.7871578198970218,0.2132500651703502,0.7017060813235367,0.5932083170727855,0.402537892442627,0.6409623534945212,0.3922248250640972,0.496668916429124,0.049452399953153765,0.6917429417249281,0.9033940813193383,0.9440848862521358,0.7275218944227627,0.9033859045479273,0.3843825010572534,0.3927249892095632,0.41921506488618815,0.1313331229396445,0.9634608640461882,0.9464033458113231,0.19763681711376954,0.7058573360018188,0.49366083729666765,0.8551541356044866,0.10706064670179326],[0.06821927622914951,0.4154680265943994,0.8386168892863103,0.27940191930653546,0.8511088654670959,0.2226162638503581,0.7908195254528322,0.11552000708369675,0.6188655001949253,0.17434222188394263,0.029117589646521454,0.9072430315386257,0.5111011608005206,0.38274168242789985,0.6619158541376413,0.19035846729884592,0.03237750253220831,0.8929012975184178,0.3735699563649488,0.6424751213928481,0.6972496125975135,0.009193992461588038,0.5923627939156058,0.6187380792648594,0.2720601816870202,0.189598568696538,0.5767776181619207,0.29511403857564183,0.48700489910452976,0.9342750857879588,0.20963357529488216,0.886130590738157,0.09961723235546403,0.744579655046391,0.7989708584312479,0.36691892007337784,0.2830837820921855,0.4410189873825299,0,0.1673419456038064,0.1412809085198283,0.2572803270633104,0.9006249675504231,0.8890501127592331,0.36800868748143933,0.804942621103496,0.1337275449413847,0.13788691724202073,0.022634406995639934,0.3641747944317629,0.5390624563097729,0.8509998052309854,0.3470214502629997,0.40515840047239515,0.44864332640701565,0.3502812123431073,0.34225892594570123,0.3018678472754385,0.6342657987482803,0.9220664140810271,0.7290403337217801,0.5437150606366066,0.40021644967887393,0.19420470888310173,0.4606121822085185,0.23369409870580327,0.3161273068752161,0.18604590744198388,0.034333593256077884,0.22417415983204048,0.04215874660690591,0.05847974610901898,0.41332416185812115,0.3161404594057294,0.6772102709082352,0.9072151145619979,0.35744582046768597,0.6471793799335221,0.7595061137518584,0.062154212310119944,0.015394650413560904,0.31932082984334687,0.8928823898262817,0.8182240804915812,0.6268749632729422,0.3495070690025437,0.8361636455500786,0.5929017974550977,0.33993587961921856],[0.24282669621974098,0.2626517075484549,0.7557792137026204,0.4451023843724776,0.936526345919042,0.048299924462212325,0.687778310506308,0.28224759842197894,0.7441579292221298,0.3482200657266524,0.13217393669754937,0.8453019667527917,0.6583649981182086,0.22282428427202808,0.5303668409423123,0.015626460890272222,0.20619997022371248,0.8289083123984593,0.21197846684935084,0.7709720811629671,0.8152148721822915,0.15071145261630772,0.7224886337308476,0.7533049825733975,0.4389334886427917,0.02495098097028194,0.7161643664494226,0.46185167982195335,0.3403215821230238,0.9811864148222404,0.37745677445450737,0.9617619251556189,0.2741007020872238,0.6347911709307368,0.8978885168086885,0.20845404290135805,0.11781752669851427,0.2904181328143325,0.1673419456038064,0,0.024852283705413054,0.4271951069149318,0.9656402306995809,0.8171061081399207,0.5319373083850734,0.8997000511966355,0.3076240906841309,0.02319524790666132,0.19208831977182453,0.5245847972624857,0.3909850198227864,0.772943275208431,0.5088886858406371,0.5630169920460908,0.6038553440245948,0.5154715793749703,0.5066666894752806,0.4689664570869153,0.7644289441431239,0.9764095058202676,0.6137688291497099,0.6857644700864152,0.5598581163478609,0.056613304140854,0.6112081876451233,0.06976445794431226,0.48181112384334657,0.35468279467253,0.12561861272576336,0.39644330672948785,0.11993173050332172,0.232477647863359,0.2522815156330397,0.47870455426090575,0.7993665707790192,0.9670660512887094,0.5194060679760804,0.7789841584047877,0.6519678683347773,0.10357887912219961,0.1508392230815631,0.15568556566591565,0.964835167568917,0.9092206423788336,0.49069012764948267,0.5067142861177674,0.7447479962760443,0.7252818979215055,0.17896005904930914],[0.21690310927902354,0.29486777803285985,0.7826298802297692,0.4239714804120528,0.9364790062979694,0.07873820063569202,0.7168036854926397,0.26000337444907945,0.7349655339310947,0.3230376508666811,0.10512072320855562,0.8696703453247895,0.6434320975204941,0.2551050585777041,0.5617454516104389,0.04515718610313277,0.18085120612656644,0.8535158174822454,0.24422993837092763,0.7610928798466655,0.8079036189087666,0.12475220265812452,0.7120888468081756,0.7419023499404309,0.41735569596459526,0.05649692252568964,0.7034548058420371,0.44038034024024547,0.3723813091414217,0.9886314434524016,0.3553432649786045,0.9637271160745912,0.24831861908133215,0.6644210090438372,0.8949551448370082,0.24074339683273574,0.15005753535747662,0.3225866211714059,0.1412809085198283,0.024852283705413054,0,0.404353071474395,0.9696730186756132,0.8427216014144486,0.5116446074894433,0.8976452159445331,0.28240915504781394,0.002773018537167199,0.16415352778485132,0.5054545943136537,0.4231469776324048,0.7992412828710155,0.4892441666839004,0.5447873215444544,0.5865286595249957,0.49469166611447857,0.48614989111832824,0.44737251172061926,0.7541324821705387,0.9824770001555362,0.6438978073059745,0.6722897003013572,0.5410620934252205,0.08335543815302844,0.5952313205177411,0.10200559661764581,0.4607780926117325,0.33218310083666713,0.10025140497244965,0.3723813091414218,0.09663392887323675,0.20710940026786334,0.2845194770303853,0.45874675659728453,0.7910527379244797,0.9720818977792437,0.4997577538273878,0.7683241450647232,0.6813994863342855,0.07438096147579873,0.12702649108817923,0.1879283686869642,0.9675277663447934,0.9079685740971395,0.5223382610372177,0.4885174600772959,0.7725900827739557,0.7143447281506993,0.2112450443717781],[0.1842393358207076,0.6408458405185501,0.9469742773697217,0.029059333536525834,0.7029682327730324,0.48023195139154073,0.9299822292449788,0.13756442841461378,0.4184912761926447,0.08277941328207952,0.2937818398677075,0.9817942751680645,0.27722376605730464,0.6176769301243331,0.8465674240150362,0.45011528187946753,0.21755189938538272,0.9712658270248892,0.6107970189227216,0.4343430086671729,0.5040690942742506,0.27325291973010335,0.3851664658441977,0.4011966029605187,0.01881905589891258,0.4438569625078668,0.353234352407849,0.03627517253067819,0.7008413662300262,0.843021900676761,0.04351317568933683,0.7518210578614696,0.1541192066861541,0.8956399007418203,0.631687396559292,0.6013683521524185,0.5293767721036249,0.6622845198964098,0.2572803270633104,0.4271951069149318,0.404353071474395,0,0.7825921730398533,0.9789885445880003,0.10991495030000568,0.6442603401359351,0.11963903165396983,0.39964186135043095,0.24115032574421363,0.1147648836476881,0.7514608390796526,0.9518922218553145,0.09580252998155268,0.157714440103659,0.20335731851810399,0.0905903413947401,0.0848777753884911,0.04111813767747637,0.4236877727159568,0.8197805298440604,0.8883698211980786,0.3175676207420144,0.14916328245855665,0.4374341029662677,0.22414659624156905,0.48291460345318493,0.05787981721962518,0.06516215402222952,0.2969022080514159,0.031101115383738616,0.30048885715569906,0.19202965513774356,0.6477967015804161,0.06792338072540544,0.4780124797856635,0.7970647623316379,0.10477044048723681,0.4327506517347046,0.9066368088597344,0.32686274753561817,0.26989342163163,0.5618276927644914,0.7641256348239716,0.6629561774674126,0.8194717903260303,0.1115714422136981,0.9566283840510899,0.38137588511660475,0.5786159140412327],[0.8757880897947444,0.9545557951596072,0.7421763300144991,0.7475885541822773,0.11795336040831762,0.9844740889255086,0.8276250133005179,0.8200621541416402,0.41095322281398555,0.8401032529075676,0.9199349407300627,0.6572838782161999,0.5661232280125157,0.9738226043534242,0.9270835642687513,0.9775940236328731,0.8809300790688349,0.6635589845156887,0.9779773897175922,0.41903298548988765,0.3435617247738407,0.9057797317129965,0.4457085506037783,0.4605667170391148,0.7571163109509402,0.9531136200612953,0.5007364381160686,0.7493676267413276,0.9470411610565008,0.09959735391717127,0.7837548813587183,0.05530428232189847,0.865786155146786,0.8471104342240655,0.20728785115290205,0.9643185260680115,0.9679238156423675,0.9518744768529454,0.9006249675504231,0.9656402306995809,0.9696730186756132,0.7825921730398533,0,0.7022669814959788,0.7104960278786253,0.18280745273188082,0.849560895760439,0.9596288285158902,0.9116039025537401,0.6888594508556308,0.9674535573987254,0.7220103813864818,0.7029652374454787,0.6608850552509371,0.6319536919247,0.7238865994219105,0.7205079713955824,0.7499971811081769,0.43089044533145626,0.056246817177870924,0.8689822947284549,0.5261962079511197,0.6733407393169802,0.9192463228583811,0.6012862096090444,0.9552401543700748,0.736328605279328,0.7967367177456498,0.9119013756659757,0.8110866060424549,0.9039651056489754,0.8724860905649262,0.9875028420111867,0.7171561717797187,0.3729523233530095,0.022634406995639934,0.7003364612153796,0.4365363545332699,0.8404647120597389,0.9425629820675415,0.891483300573808,0.9712495204113,0.03324976984080121,0.15827396469775326,0.9384854765970478,0.6766754840240852,0.783748157638123,0.4570250475669647,0.9669295687894567],[0.9234115368489874,0.6121379005913256,0.07312293819594413,0.9621131442451349,0.7872327992072347,0.793011698518254,0.19310952044609028,0.9024825032895952,0.8933927582172486,0.9700203066853941,0.8800421821796482,0.05136521705661092,0.964080910135345,0.6563661063642016,0.39225410722680515,0.8114608731416254,0.9005464624637001,0.03593308467819253,0.6676564057759434,0.9214984993923307,0.8896919390164603,0.8811683779877704,0.907366321328004,0.9439629998481206,0.9658151563032585,0.7869073912814281,0.9508580275769049,0.9760936819407463,0.5487516335865388,0.6229091164634961,0.9430063762417309,0.7518560894785664,0.9378205030892661,0.2486553572890141,0.8347991886608732,0.659469891350217,0.7284391173018022,0.5895303877124081,0.8890501127592331,0.8171061081399207,0.8427216014144486,0.9789885445880003,0.7022669814959788,0,0.9942426311554342,0.8151941789178359,0.9485281127105968,0.8343493551978473,0.9167757133780898,0.970408818171241,0.5280670783992102,0.04509646418688852,0.9709363807262106,0.9748337035784674,0.9801872057644442,0.9935796224104284,0.9843485841229893,0.9818405218114283,0.9268102856800786,0.6561577092195117,0.28221821480891285,0.9500860934191452,0.9831699950118334,0.7531707086173873,0.9591897570653632,0.7546673621770179,0.9796150050805073,0.9373082333668263,0.8676848149378542,0.9806137159869451,0.8553280317789478,0.9127805000349458,0.6462246345696432,0.9606712372414075,0.9031090191016902,0.6780861699331219,0.9764797952862712,0.9423120815796165,0.2303305282640423,0.8784246707281944,0.8675498541370421,0.7033964346595329,0.7354698181003554,0.8013264422569361,0.43080305441816097,0.9459570676392288,0.11439866625973083,0.9196951302217973,0.6830779174099814],[0.2979422134979984,0.7245627792629096,0.9711614600025866,0.08136494143001075,0.6195174896278982,0.5828199247405739,0.9683142522686347,0.24524252130873972,0.31978611555350656,0.1999942256823173,0.4040170525138097,0.9901395918485192,0.16690920792642142,0.7063046740958884,0.9072279099487212,0.5544478404016294,0.328947220432933,0.981547948478882,0.7006475613470293,0.33118856357308935,0.4057536424028014,0.3832893875766364,0.2843991941281976,0.2946177943880225,0.08954281244328266,0.545336145353671,0.2453267201172933,0.06708576836385262,0.7779525750086205,0.7812874731807207,0.15153008615441788,0.6732829118251156,0.26906737087460614,0.9400700767233395,0.5415429380989771,0.6901219681225028,0.6252223250174083,0.7436438963182904,0.36800868748143933,0.5319373083850734,0.5116446074894433,0.10991495030000568,0.7104960278786253,0.9942426311554342,0,0.5567419020999554,0.23532992562699853,0.5060040175783944,0.3547885508488892,0.017403192022897637,0.8268232242443482,0.9726422130147642,0.01885954497777645,0.04655464759276713,0.08987137659825055,0.012132829476255078,0.018369483877930467,0.06141646382147363,0.3197113240484416,0.7537356182782518,0.9366751121320113,0.20971198298082094,0.03526560576169019,0.5343777554291997,0.11540746752112963,0.5811538541755004,0.04525823380868154,0.17527629094360395,0.40568926366674113,0.1483253805598857,0.4077239305337577,0.3045052415183632,0.7355986994534889,0.046059744906761256,0.3776916644589685,0.7281007171079286,0.010605405738352015,0.3266972110839318,0.9490588450250386,0.43728101548784853,0.37801198926432494,0.6551934212935904,0.6877400498708409,0.577365555503628,0.8843237045099386,0.04085448197047698,0.9860003295296293,0.2785066043293715,0.6698277909718253],[0.7670173891408036,0.9415511341788387,0.8401647620480048,0.6079491823916325,0.06141646382147363,0.9280849027855606,0.9067869475044021,0.7078175809098456,0.23637510969015774,0.7134243309970072,0.8297970642515038,0.7787216527540918,0.3971460552957417,0.9521151154919736,0.9688233301527751,0.9151557175729466,0.7790017458571211,0.7812335135263295,0.9539362459376012,0.23797572734601563,0.1589403525974723,0.8130197784545105,0.2727331456970904,0.2803609992532885,0.6180495576971295,0.8931139817005757,0.32492529191117503,0.6064119927837607,0.9498293846654915,0.2855199139945811,0.6549284377323372,0.12572252270557782,0.7516206459388834,0.9144358315302615,0.017360325229663,0.9402115503188923,0.9259546345281929,0.9445007480206692,0.804942621103496,0.8997000511966355,0.8976452159445331,0.6442603401359351,0.18280745273188082,0.8151941789178359,0.5567419020999554,0,0.7299599963934869,0.8881239343561291,0.8104676502538928,0.5376706422598038,0.9792074735842562,0.8246932766332933,0.5538927620887343,0.5041127729277335,0.46926562346736483,0.5724325739487633,0.5708248939946641,0.6056801305601343,0.25032832241757436,0.24421302746951634,0.930814930232032,0.35451528419845524,0.5164412170047902,0.8628167079823168,0.4390860095834031,0.9041845453747275,0.5903799168931724,0.6714987861962768,0.8237056257793107,0.6769693576119153,0.8177548970923703,0.7659615904351285,0.9708167523095429,0.5730139146211113,0.1894473178074964,0.210660433254982,0.5494245750379971,0.25326282748556334,0.911646735354952,0.8566034323645235,0.8000045778761545,0.9365229645962692,0.14628332660107476,0.01731738420804819,0.9716744907469896,0.5299611333358221,0.8770400022280955,0.28240915504781394,0.9369275102597239],[0.05846360362261149,0.5410620934252205,0.9073174726443762,0.1472492696423511,0.783356738614459,0.3622659613899828,0.8752145067690436,0.0386910179281243,0.5203422716456038,0.033197438158709736,0.17015000662547097,0.9587846220629747,0.3932856001350951,0.5128606862297911,0.7687875691435415,0.33068862468689936,0.09415073961814414,0.9463219156222388,0.5047488107256081,0.5401146822406574,0.6035768028287599,0.15021958183591183,0.4898414559783334,0.5110252380190399,0.1384422642483922,0.32760664945515866,0.4653346909019666,0.16084784134106697,0.6073524200088032,0.8979061447654278,0.07837941469654615,0.8261725588753298,0.027358058081270023,0.8347701336464011,0.7203676466957114,0.496668916429124,0.41800139751716847,0.564748892650557,0.1337275449413847,0.3076240906841309,0.28240915504781394,0.11963903165396983,0.849560895760439,0.9485281127105968,0.23532992562699853,0.7299599963934869,0,0.278711176025094,0.11474746961414115,0.23590773709839175,0.6591060536959608,0.9158923269004653,0.21749987584270689,0.2786553982514886,0.32391218203190975,0.2165091323539858,0.2096531798712547,0.16690920792642142,0.5304914603500007,0.8796644669434476,0.8233945031004816,0.4304557460568188,0.2717631063741954,0.3265730049063308,0.34068546432421226,0.36963743335897853,0.1826340062723165,0.055844592648807076,0.17490323750861772,0.08399767423192343,0.18035329496588098,0.06786688785624197,0.543438943875437,0.18689636655959097,0.5800664731884521,0.860447810504958,0.2274583100383469,0.5414654109971668,0.8477812477955364,0.20262418520034148,0.14946871397800368,0.4526752485910553,0.8359782292848886,0.7462966653811755,0.7375378131685533,0.22598160248624555,0.9111870467248377,0.48809251895866645,0.4715700538779938],[0.21352469386539283,0.2911744402712348,0.7746619540111161,0.4186036688292603,0.9267476480775719,0.07882458056394133,0.7097665343588699,0.2549712930759117,0.72650060813742,0.31934362148806417,0.10223866242076465,0.8609576381549949,0.6362176170442899,0.2522815156330397,0.5564476358733547,0.04558029229931394,0.1771360125410533,0.8448651665279988,0.24164203441821697,0.7527621462212927,0.7991146563726427,0.12126957208827792,0.7038542952839492,0.7338784390913241,0.41215177777750855,0.05252975215083555,0.6957124549246555,0.4351442506099754,0.3681815105590796,0.9784480240889368,0.35031987553747673,0.9538222496576956,0.24488857950169143,0.6577254944583211,0.8855386304727121,0.23763299770822008,0.14762710100873053,0.31870485338296195,0.13788691724202073,0.02319524790666132,0.002773018537167199,0.39964186135043095,0.9596288285158902,0.8343493551978473,0.5060040175783944,0.8881239343561291,0.278711176025094,0,0.1619254974306085,0.4994220098041161,0.4192025961735809,0.7910847160381855,0.483376544705757,0.5384800416549063,0.5799596167999231,0.48921846070978686,0.4805808978406395,0.44218472376897333,0.7458829625341382,0.9723360339309349,0.6375204966396181,0.6647202404181983,0.5349312277051952,0.07627067746482542,0.5882832917523944,0.09875909956242672,0.4553865949840574,0.32730165891614793,0.09637803464527066,0.3681815105590796,0.09172340625812447,0.20343301441894313,0.2819830385097534,0.4529757572257491,0.7824345913774511,0.9619858420280073,0.4938943380387167,0.7601495304169861,0.6745867444253124,0.0730039898398544,0.12246266852182454,0.18543456464623478,0.9575692990669573,0.8983584782514584,0.5173806822994031,0.4821850213930243,0.7650007715829193,0.7062197014349814,0.20839982650807035],[0.04952715753612829,0.44462016116049724,0.8671022675420633,0.26599901257577463,0.8583956674869492,0.2477564013192592,0.82033082953053,0.10585560905155761,0.6179423862123499,0.1546845767983595,0.05265381758213618,0.9342072953460717,0.5040420532385762,0.4112252298855194,0.6919802874871952,0.21488796349746786,0.024051571159026394,0.9200439250088278,0.4018496009576275,0.6405487197016284,0.6978547882754368,0.0369274651359611,0.590242862883454,0.6151853383891163,0.2579907663213262,0.21613349738671764,0.5719700194810321,0.28087809250077794,0.5166117850115454,0.9482253409439957,0.19582857703509646,0.8952062430275467,0.07995192472811326,0.7743449229086633,0.8036214031708362,0.39550176166732676,0.3105651897488287,0.4703579952196208,0.022634406995639934,0.19208831977182453,0.16415352778485132,0.24115032574421363,0.9116039025537401,0.9167757133780898,0.3547885508488892,0.8104676502538928,0.11474746961414115,0.1619254974306085,0,0.3527975026797541,0.5686571052329971,0.8791785966236985,0.335068634397991,0.3946347572032064,0.43894540621792527,0.3364914959929325,0.32898201035289576,0.28733019130742965,0.6319120905851151,0.9348273960397561,0.7589510106592104,0.5382383227869602,0.38891274399472264,0.22276883053908472,0.45266368664699597,0.260984202294185,0.30234217464065144,0.17208655445865217,0.06118429087772588,0.2061800487329594,0.07075041202479165,0.04336679373165829,0.4417585857857794,0.30412983777048813,0.6768294335487142,0.9190809784130018,0.3453516262435233,0.6442946233416692,0.7891944754509446,0.08254324138628047,0.04543963307132531,0.3471804996498776,0.9026251436826463,0.8244899573732041,0.6568852116671428,0.3397796401312519,0.8651218675130603,0.5901289239411046,0.3681815105590796],[0.2963843722043455,0.7103107593343347,0.9479547688396407,0.08162813301165858,0.5996778275126986,0.5744656395953577,0.9463933068486472,0.24125302348201635,0.3032749606341094,0.20298854308092354,0.39971764893822775,0.9659321202597407,0.1554767171695355,0.6933070271645154,0.8882522315649563,0.5468565250992099,0.32574378043672547,0.9574402946791569,0.6879848815631615,0.3163935415002919,0.3893393273694458,0.3790016568650038,0.26850887066701085,0.2813058396777512,0.09117468652242003,0.5366919078130723,0.23259735413797356,0.07111695448372615,0.7621360029600927,0.7584510738845878,0.15044212417024486,0.6526065027095047,0.2686746126984373,0.9188501357739691,0.5230607548328361,0.6771931766302377,0.6144620900393221,0.7288105998319361,0.3641747944317629,0.5245847972624857,0.5054545943136537,0.1147648836476881,0.6888594508556308,0.970408818171241,0.017403192022897637,0.5376706422598038,0.23590773709839175,0.4994220098041161,0.3527975026797541,0,0.8105678072078216,0.9491800821480268,0.011525402552664682,0.03563770430043194,0.08129302641950206,0.02763216768955988,0.026112709245160484,0.0673138449935363,0.30523768381423877,0.7313553454877122,0.9159303518007678,0.1968362884278655,0.02867837843668595,0.5242487221248212,0.1025970050300856,0.5712810099559515,0.05026940712422699,0.1739203212797124,0.4006