"trial_id","rt","stimulus","response","trial_type","trial_index","plugin_version","time_elapsed","language","participant_number","success","raw_payload","placements","dissimilarity_vector","n_words","trial_category","distance_matrix","value"
"consent_form","34936","
    <div style=""max-width:800px; margin:0 auto; text-align:left; font-size: 16px; padding: 10px 0;"">
      <h1>Informed Consent Form</h1>
      <p>You are being invited to participate in a research study titled <strong>""Reproducibility of Psychological Science and Instruction.""</strong> This study is being done by Dr. Bria Long from UC San Diego and associated graduate students in the Experimental Methods course. You were selected to participate in this study because you are an adult in the U.S. and have been a represented population in previous psychology studies.</p>
      
      <p>The purpose of this study is to better understand how well previously published studies in the psychological field replicate online and with different populations. Your participation in this research should last approximately <strong>5-30 minutes</strong>. If you agree to take part in this study, you may be asked to view a set of stimuli, including pictures, sounds, written text, or videos and then giving some responses via key-presses, verbally, or with paper-and-pencil. We may also observe your choices or preferences among an array of stimuli. These stimuli will be taken directly from or closely adapted from studies that already exist in the published psychological literature. Stimuli will include, e.g., pictures of objects and human faces, audio and video clips, short text passages, etc. None of the stimuli will be disturbing, threatening, or offensive. The online and in-person experiments described in this protocol will take no more than 30 minutes. An example game you might play would be to click on an image on the screen that matches a word you hear being said out loud. Your total expected time commitment for this study is between 5-30 minutes, and is specified in the study description.</p>
      
      <p>Your participation in this study is completely voluntary and you can withdraw at any time. Choosing not to participate or withdrawing will result in no penalty or loss of benefits to which you are entitled. You are free to skip any question that you choose.</p>
      
      <p>We will not be asking for any personally identifying information, and we will handle responses as confidentially as possible. Your SONA or Prolific IDs will never be tied to your responses on this survey. However, we cannot guarantee the confidentiality of information transmitted over the Internet. To minimize this risk, data containing anything that might be personally identifying (e.g. Prolific IDs or IP addresses) will be encrypted on transfer and storage and will only be accessible to qualified lab personnel. We will be keeping data collected as part of this experiment indefinitely. This anonymized data (containing neither Prolific IDs nor IP addresses) may be shared with the scientific community or with other participants to be used as stimuli in future studies.</p>
      
      <p>If you have questions about this project or if you have a research-related problem, you may contact the researcher(s), <strong>Dr. Bria Long, <a href=""mailto:brlong@ucsd.edu"">brlong@ucsd.edu</a></strong>. If you have any questions concerning your rights as a research subject, you may contact the UC San Diego Office of IRB Administration at <a href=""mailto:irb@ucsd.edu"">irb@ucsd.edu</a> or 858-246-4777.</p>
      
      <h3 style=""margin-top: 25px;"">Consent Statement</h3>
      <p style=""font-weight: bold;"">By participating in this research you are indicating that you are at least 18 years old, have read this consent form, and agree to participate in this research study. Please keep this consent form for your records.</p>
    </div>
  ","0","html-button-response","0","2.1.0","34940","zh","tys0mqxcsd_4wzkd8","","","","","","","",""
"","16220","
    <div style=""display:flex; align-items:center; justify-content:center; height:100vh; font-family:sans-serif;"">
      <div style=""max-width:900px; margin:0 auto; text-align:center;"">
        <h1 style= ""font-size: 24px;"">Welcome! Thank you for participating in the study.</h1>
        <p style=""font-size:18px; line-height:1.6;"">
          In this task, you will be presented with <strong>90 words</strong> arranged <strong>outside a circle</strong>.<br>
          Your job is to <strong>drag these words into the circle</strong> and <strong>rearrange them</strong> based on their <strong>meaning similarity</strong>.<br><br>
          Words that are <strong>similar in meaning</strong> should be placed <strong>closer together</strong>.<br>
          Words that are <strong>different in meaning</strong> should be placed <strong>farther apart</strong>.<br><br>
          You can place the words <strong>anywhere inside the circle</strong>. There is no single correct answer — 
          we are interested in <strong>your personal judgment</strong> of how these words relate to each other.<br><br>
          <strong>You must move all words into the circle before you can finish.</strong><br>
          After the initial arrangement, you will arrange words from specific categories.
        </p>
        <p style=""font-size:16px; margin-top:30px;""><em>Press any key to continue.</em></p>
      </div>
    </div>
  "," ","html-keyboard-response","1","2.1.0","51162","zh","tys0mqxcsd_4wzkd8","","","","","","","",""
"","3220","<p style='font-size:20px;'>Which is your first language or primary language of use?</p>","0","html-button-response","2","2.1.0","54384","zh","tys0mqxcsd_4wzkd8","","","","","","","",""
"","2497","","","fullscreen","3","2.1.0","57885","zh","tys0mqxcsd_4wzkd8","true","{""placements"":[{""word"":""骄傲"",""x"":267,""y"":-11.3,""cx"":286,""cy"":6.1,""angle_rad"":-1.755,""angle_deg"":259.5},{""word"":""冰箱"",""x"":601,""y"":536.7,""cx"":620,""cy"":554.1,""angle_rad"":0.647,""angle_deg"":37.1},{""word"":""兔子"",""x"":-8,""y"":407.7,""cx"":11,""cy"":425.1,""angle_rad"":2.924,""angle_deg"":167.5},{""word"":""协议"",""x"":123,""y"":53.7,""cx"":142,""cy"":71.1,""angle_rad"":-2.212,""angle_deg"":233.3},{""word"":""嘴唇"",""x"":636,""y"":210.7,""cx"":655,""cy"":228.1,""angle_rad"":-0.38,""angle_deg"":338.2},{""word"":""剪刀"",""x"":386,""y"":667.7,""cx"":405,""cy"":685.1,""angle_rad"":1.408,""angle_deg"":80.7},{""word"":""长颈鹿"",""x"":92,""y"":575.7,""cx"":118,""cy"":593.1,""angle_rad"":2.333,""angle_deg"":133.7},{""word"":""制度"",""x"":20,""y"":239.7,""cx"":39,""cy"":257.1,""angle_rad"":-2.851,""angle_deg"":196.6},{""word"":""过失"",""x"":311,""y"":-13.3,""cx"":330,""cy"":4.1,""angle_rad"":-1.629,""angle_deg"":266.7},{""word"":""友情"",""x"":55,""y"":122.7,""cx"":74,""cy"":140.1,""angle_rad"":-2.491,""angle_deg"":217.3},{""word"":""方法"",""x"":52,""y"":191.7,""cx"":71,""cy"":209.1,""angle_rad"":-2.674,""angle_deg"":206.8},{""word"":""蚂蚁"",""x"":4,""y"":434.7,""cx"":23,""cy"":452.1,""angle_rad"":2.839,""angle_deg"":162.7},{""word"":""沮丧"",""x"":521,""y"":49.7,""cx"":540,""cy"":67.1,""angle_rad"":-0.979,""angle_deg"":303.9},{""word"":""沙发"",""x"":513,""y"":621.7,""cx"":532,""cy"":639.1,""angle_rad"":1.009,""angle_deg"":57.8},{""word"":""暴力"",""x"":417,""y"":-6.3,""cx"":436,""cy"":11.1,""angle_rad"":-1.322,""angle_deg"":284.2},{""word"":""筷子"",""x"":637,""y"":479.7,""cx"":656,""cy"":497.1,""angle_rad"":0.448,""angle_deg"":25.7},{""word"":""概念"",""x"":104,""y"":588.7,""cx"":123,""cy"":606.1,""angle_rad"":2.296,""angle_deg"":131.6},{""word"":""麻雀"",""x"":8,""y"":458.7,""cx"":27,""cy"":476.1,""angle_rad"":2.769,""angle_deg"":158.7},{""word"":""椅子"",""x"":528,""y"":620.7,""cx"":547,""cy"":638.1,""angle_rad"":0.971,""angle_deg"":55.6},{""word"":""买卖"",""x"":573,""y"":96.7,""cx"":592,""cy"":114.1,""angle_rad"":-0.773,""angle_deg"":315.7},{""word"":""魔力"",""x"":42,""y"":168.7,""cx"":61,""cy"":186.1,""angle_rad"":-2.626,""angle_deg"":209.6},{""word"":""结果"",""x"":592,""y"":142.7,""cx"":611,""cy"":160.1,""angle_rad"":-0.629,""angle_deg"":324},{""word"":""敌意"",""x"":453,""y"":4.7,""cx"":472,""cy"":22.1,""angle_rad"":-1.215,""angle_deg"":290.4},{""word"":""纠纷"",""x"":541,""y"":64.7,""cx"":560,""cy"":82.1,""angle_rad"":-0.906,""angle_deg"":308.1},{""word"":""关系"",""x"":94,""y"":90.7,""cx"":113,""cy"":108.1,""angle_rad"":-2.346,""angle_deg"":225.6},{""word"":""铅笔"",""x"":331,""y"":675.7,""cx"":350,""cy"":693.1,""angle_rad"":1.571,""angle_deg"":90},{""word"":""愤怒"",""x"":427,""y"":0.7,""cx"":446,""cy"":18.1,""angle_rad"":-1.289,""angle_deg"":286.1},{""word"":""团队"",""x"":184,""y"":23.7,""cx"":203,""cy"":41.1,""angle_rad"":-2.015,""angle_deg"":244.6},{""word"":""洗衣机"",""x"":613,""y"":503.7,""cx"":639,""cy"":521.1,""angle_rad"":0.535,""angle_deg"":30.6},{""word"":""大腿"",""x"":669,""y"":312.7,""cx"":688,""cy"":330.1,""angle_rad"":-0.059,""angle_deg"":356.6},{""word"":""慈善"",""x"":25,""y"":187.7,""cx"":44,""cy"":205.1,""angle_rad"":-2.699,""angle_deg"":205.3},{""word"":""手指"",""x"":656,""y"":293.7,""cx"":675,""cy"":311.1,""angle_rad"":-0.119,""angle_deg"":353.2},{""word"":""性质"",""x"":3,""y"":291.7,""cx"":22,""cy"":309.1,""angle_rad"":-3.018,""angle_deg"":187.1},{""word"":""猫"",""x"":39,""y"":502.7,""cx"":51,""cy"":520.1,""angle_rad"":2.624,""angle_deg"":150.4},{""word"":""眼睛"",""x"":614,""y"":177.7,""cx"":633,""cy"":195.1,""angle_rad"":-0.501,""angle_deg"":331.3},{""word"":""床"",""x"":661,""y"":213.7,""cx"":673,""cy"":231.1,""angle_rad"":-0.353,""angle_deg"":339.8},{""word"":""鼠标"",""x"":481,""y"":643.7,""cx"":500,""cy"":661.1,""angle_rad"":1.122,""angle_deg"":64.3},{""word"":""微波炉"",""x"":632,""y"":467.7,""cx"":658,""cy"":485.1,""angle_rad"":0.413,""angle_deg"":23.7},{""word"":""原因"",""x"":6,""y"":260.7,""cx"":25,""cy"":278.1,""angle_rad"":-2.924,""angle_deg"":192.5},{""word"":""锤子"",""x"":357,""y"":674.7,""cx"":376,""cy"":692.1,""angle_rad"":1.495,""angle_deg"":85.7},{""word"":""勺子"",""x"":620,""y"":491.7,""cx"":639,""cy"":509.1,""angle_rad"":0.503,""angle_deg"":28.8},{""word"":""缘分"",""x"":86,""y"":107.7,""cx"":105,""cy"":125.1,""angle_rad"":-2.399,""angle_deg"":222.6},{""word"":""胳膊"",""x"":656,""y"":253.7,""cx"":675,""cy"":271.1,""angle_rad"":-0.238,""angle_deg"":346.4},{""word"":""老鼠"",""x"":14,""y"":480.7,""cx"":33,""cy"":498.1,""angle_rad"":2.705,""angle_deg"":155},{""word"":""兴奋"",""x"":289,""y"":-3.3,""cx"":308,""cy"":14.1,""angle_rad"":-1.695,""angle_deg"":262.9},{""word"":""耳朵"",""x"":629,""y"":188.7,""cx"":648,""cy"":206.1,""angle_rad"":-0.45,""angle_deg"":334.2},{""word"":""社会"",""x"":5,""y"":238.7,""cx"":24,""cy"":256.1,""angle_rad"":-2.861,""angle_deg"":196.1},{""word"":""牙刷"",""x"":264,""y"":673.7,""cx"":283,""cy"":691.1,""angle_rad"":1.765,""angle_deg"":101.1},{""word"":""过程"",""x"":603,""y"":122.7,""cx"":622,""cy"":140.1,""angle_rad"":-0.657,""angle_deg"":322.3},{""word"":""光彩"",""x"":63,""y"":139.7,""cx"":82,""cy"":157.1,""angle_rad"":-2.518,""angle_deg"":215.7},{""word"":""空调"",""x"":663,""y"":408.7,""cx"":682,""cy"":426.1,""angle_rad"":0.225,""angle_deg"":12.9},{""word"":""乌龟"",""x"":-14,""y"":370.7,""cx"":5,""cy"":388.1,""angle_rad"":3.032,""angle_deg"":173.7},{""word"":""地位"",""x"":95,""y"":86.7,""cx"":114,""cy"":104.1,""angle_rad"":-2.336,""angle_deg"":226.2},{""word"":""创伤"",""x"":381,""y"":-2.3,""cx"":400,""cy"":15.1,""angle_rad"":-1.423,""angle_deg"":278.5},{""word"":""死亡"",""x"":131,""y"":57.7,""cx"":150,""cy"":75.1,""angle_rad"":-2.2,""angle_deg"":234},{""word"":""快乐"",""x"":212,""y"":9.7,""cx"":231,""cy"":27.1,""angle_rad"":-1.924,""angle_deg"":249.8},{""word"":""身份"",""x"":71,""y"":105.7,""cx"":90,""cy"":123.1,""angle_rad"":-2.424,""angle_deg"":221.1},{""word"":""婚姻"",""x"":112,""y"":65.7,""cx"":131,""cy"":83.1,""angle_rad"":-2.258,""angle_deg"":230.6},{""word"":""错误"",""x"":332,""y"":-10.3,""cx"":351,""cy"":7.1,""angle_rad"":-1.568,""angle_deg"":270.2},{""word"":""脚踝"",""x"":672,""y"":353.7,""cx"":691,""cy"":371.1,""angle_rad"":0.062,""angle_deg"":3.5},{""word"":""老虎"",""x"":64,""y"":556.7,""cx"":83,""cy"":574.1,""angle_rad"":2.443,""angle_deg"":140},{""word"":""冷漠"",""x"":489,""y"":21.7,""cx"":508,""cy"":39.1,""angle_rad"":-1.101,""angle_deg"":296.9},{""word"":""疾病"",""x"":160,""y"":35.7,""cx"":179,""cy"":53.1,""angle_rad"":-2.093,""angle_deg"":240.1},{""word"":""扫帚"",""x"":233,""y"":662.7,""cx"":252,""cy"":680.1,""angle_rad"":1.859,""angle_deg"":106.5},{""word"":""难过"",""x"":492,""y"":28.7,""cx"":511,""cy"":46.1,""angle_rad"":-1.084,""angle_deg"":297.9},{""word"":""钥匙"",""x"":297,""y"":673.7,""cx"":316,""cy"":691.1,""angle_rad"":1.67,""angle_deg"":95.7},{""word"":""天堂"",""x"":50,""y"":148.7,""cx"":69,""cy"":166.1,""angle_rad"":-2.562,""angle_deg"":213.2},{""word"":""义务"",""x"":14,""y"":213.7,""cx"":33,""cy"":231.1,""angle_rad"":-2.783,""angle_deg"":200.6},{""word"":""数据"",""x"":432,""y"":649.7,""cx"":451,""cy"":667.1,""angle_rad"":1.262,""angle_deg"":72.3},{""word"":""爱心"",""x"":34,""y"":165.7,""cx"":53,""cy"":183.1,""angle_rad"":-2.63,""angle_deg"":209.3},{""word"":""内容"",""x"":-16,""y"":298.7,""cx"":3,""cy"":316.1,""angle_rad"":-3.044,""angle_deg"":185.6},{""word"":""现象"",""x"":623,""y"":152.7,""cx"":642,""cy"":170.1,""angle_rad"":-0.552,""angle_deg"":328.4},{""word"":""柜子"",""x"":565,""y"":581.7,""cx"":584,""cy"":599.1,""angle_rad"":0.817,""angle_deg"":46.8},{""word"":""奇迹"",""x"":64,""y"":160.7,""cx"":83,""cy"":178.1,""angle_rad"":-2.57,""angle_deg"":212.8},{""word"":""恐惧"",""x"":359,""y"":-9.3,""cx"":378,""cy"":8.1,""angle_rad"":-1.489,""angle_deg"":274.7},{""word"":""膝盖"",""x"":654,""y"":329.7,""cx"":673,""cy"":347.1,""angle_rad"":-0.009,""angle_deg"":359.5},{""word"":""舒心"",""x"":247,""y"":2.7,""cx"":266,""cy"":20.1,""angle_rad"":-1.82,""angle_deg"":255.7},{""word"":""债务"",""x"":579,""y"":109.7,""cx"":598,""cy"":127.1,""angle_rad"":-0.732,""angle_deg"":318.1},{""word"":""大象"",""x"":-19,""y"":333.7,""cx"":0,""cy"":351.1,""angle_rad"":3.138,""angle_deg"":179.8},{""word"":""作用"",""x"":149,""y"":628.7,""cx"":168,""cy"":646.1,""angle_rad"":2.122,""angle_deg"":121.6},{""word"":""纪律"",""x"":38,""y"":244.7,""cx"":57,""cy"":262.1,""angle_rad"":-2.85,""angle_deg"":196.7},{""word"":""电视"",""x"":438,""y"":661.7,""cx"":457,""cy"":679.1,""angle_rad"":1.256,""angle_deg"":72},{""word"":""肩膀"",""x"":664,""y"":232.7,""cx"":683,""cy"":250.1,""angle_rad"":-0.291,""angle_deg"":343.3},{""word"":""鼻子"",""x"":645,""y"":191.7,""cx"":664,""cy"":209.1,""angle_rad"":-0.422,""angle_deg"":335.8},{""word"":""斧头"",""x"":369,""y"":660.7,""cx"":388,""cy"":678.1,""angle_rad"":1.455,""angle_deg"":83.4},{""word"":""风景"",""x"":611,""y"":157.7,""cx"":630,""cy"":175.1,""angle_rad"":-0.558,""angle_deg"":328},{""word"":""熊猫"",""x"":39,""y"":522.7,""cx"":58,""cy"":540.1,""angle_rad"":2.564,""angle_deg"":146.9},{""word"":""骗局"",""x"":554,""y"":73.7,""cx"":573,""cy"":91.1,""angle_rad"":-0.86,""angle_deg"":310.7},{""word"":""桌子"",""x"":545,""y"":597.7,""cx"":564,""cy"":615.1,""angle_rad"":0.892,""angle_deg"":51.1}],""n_words"":89,""words"":[""骄傲"",""冰箱"",""兔子"",""协议"",""嘴唇"",""剪刀"",""长颈鹿"",""制度"",""过失"",""友情"",""方法"",""蚂蚁"",""沮丧"",""沙发"",""暴力"",""筷子"",""概念"",""麻雀"",""椅子"",""买卖"",""魔力"",""结果"",""敌意"",""纠纷"",""关系"",""铅笔"",""愤怒"",""团队"",""洗衣机"",""大腿"",""慈善"",""手指"",""性质"",""猫"",""眼睛"",""床"",""鼠标"",""微波炉"",""原因"",""锤子"",""勺子"",""缘分"",""胳膊"",""老鼠"",""兴奋"",""耳朵"",""社会"",""牙刷"",""过程"",""光彩"",""空调"",""乌龟"",""地位"",""创伤"",""死亡"",""快乐"",""身份"",""婚姻"",""错误"",""脚踝"",""老虎"",""冷漠"",""疾病"",""扫帚"",""难过"",""钥匙"",""天堂"",""义务"",""数据"",""爱心"",""内容"",""现象"",""柜子"",""奇迹"",""恐惧"",""膝盖"",""舒心"",""债务"",""大象"",""作用"",""纪律"",""电视"",""肩膀"",""鼻子"",""斧头"",""风景"",""熊猫"",""骗局"",""桌子""],""distance_matrix"":[[0,0.9202790506567365,0.7173878868536651,0.22207032976209923,0.6155641102700572,0.9889575885240938,0.8752560055829337,0.502293312409274,0.0576182086451588,0.3560165167245209,0.42080967700037164,0.7413238227026709,0.371060175568856,0.9741956398737543,0.21065820747884828,0.881366507304343,0.8913901335029062,0.7685571719899246,0.9809094846699452,0.46238590400018775,0.40991045792529673,0.5131026812072129,0.2634866301959128,0.4044322414123131,0.2838998825125761,0.9898605901827303,0.22561910290945159,0.12405470476988777,0.8951716801885677,0.7392233116285908,0.44624065181519396,0.7074713617317155,0.574061199632153,0.809740263589478,0.5643279298064164,0.6401292670192307,0.9885586675712075,0.8693646420577015,0.5381115546196344,0.9926085023569541,0.8809403304362566,0.3066803954673248,0.6733716054057369,0.7925153015633869,0.027835095025409554,0.5909441611219904,0.5167079354037791,0.9826903873028352,0.5161257457119052,0.3603554104527222,0.8271679220744494,0.6784716175117936,0.27975602561507923,0.15909262754271666,0.21414966291367887,0.0790178442044274,0.32349482691744735,0.2438371592399447,0.0878721555319531,0.7809226743003178,0.8646017909070011,0.31797307362158317,0.16271915194422112,0.9680419735662771,0.3238739721830851,0.9836285774673009,0.38316456017168576,0.48270237994398413,0.9773157595102587,0.41635452593808187,0.5998549412063278,0.5597474516347574,0.951890922551791,0.37805624099107377,0.12686038696147772,0.7384821856539779,0.029283709372600955,0.4770234025477481,0.6408172350841433,0.9333030372836791,0.4897763202240222,0.9962253318361496,0.6665904079062092,0.6132943667262636,0.9750272973057033,0.5472088068344426,0.8320590275861472,0.4260489348811091,0.9602400767104915],[0.9202790506567365,0,0.8924955498864069,0.9747990069448613,0.4672552197947982,0.35741220487932607,0.720747884133891,0.935790233376491,0.8914261128601594,0.9829832065866642,0.9298614981730956,0.8681596814640913,0.7063361470617409,0.17062880873639644,0.8215094237476799,0.09134885295065942,0.7152638744080942,0.8572731303402434,0.15466644959868514,0.6303672512097577,0.9599597714121308,0.5628412146710853,0.7910203964067669,0.6807488816378424,0.9686117472065939,0.4323365431289721,0.8073759832989097,0.9481922726079997,0.049006916206033216,0.33190729039452516,0.9660563863337226,0.35363199377384424,0.9267434290870212,0.8167277781300266,0.512518451966484,0.46645560396098534,0.22609086501840947,0.10773734461879646,0.9406779115506471,0.3986251250494434,0.0645476760803862,0.9614261616466604,0.4101332927940511,0.8450881510846519,0.8941424508356788,0.4979261348732988,0.9557616324718996,0.519081816101173,0.5915650075677078,0.9590406619442192,0.1993168903107481,0.9134181246272772,0.971355464348016,0.8342695772556866,0.9625828358554147,0.9394107140108263,0.9799761016183762,0.973937395771386,0.8738093566934616,0.2773472413791608,0.7696160878191287,0.754700940264876,0.9573436197182894,0.5554376315253065,0.743911673718471,0.4752951719056594,0.9666648026460568,0.9610298845895904,0.2874604523492091,0.9719882739645387,0.9484924021758917,0.5491691085463766,0.07722152801702116,0.940176079736111,0.8560017287861728,0.3024407696417015,0.918717000593934,0.6111378037419535,0.9356121623204432,0.6597776836983127,0.909389988504518,0.29051145673899137,0.4421221633648869,0.49600639984805656,0.37371115307214964,0.5412343817313542,0.805411825802029,0.6657117782692599,0.1135611528510687],[0.7173878868536651,0.8924955498864069,0,0.5388232075503779,0.9660220980259733,0.6753464860863877,0.28151857613975095,0.23986114499141128,0.756387314517225,0.41530755186912827,0.31759667044505696,0.03669261882765799,0.9159341151707585,0.8069468895302999,0.8503537578006138,0.9307325195994551,0.3012463084099789,0.07119274265667762,0.8264788220780261,0.9451572976619377,0.34645550245068524,0.9407043163822616,0.8777781126489926,0.9283288468633284,0.4746628196098016,0.617738766371062,0.8538167708191507,0.613676036113556,0.9109440745820059,0.9807078895823906,0.31511821035575077,0.9663938473301111,0.16221825228936967,0.14281690704114566,0.9511632177135443,0.989667084053772,0.777695766765863,0.9318437588344047,0.20716819583382606,0.6467370166820877,0.9084872489451735,0.44778348104344157,0.9778092327081321,0.10408764879950139,0.7258962938767565,0.9662203105910626,0.23868043263150504,0.543132557630836,0.9670941069011281,0.3941858579395177,0.9624763719860996,0.04814740435598856,0.4806005997584983,0.809740263589478,0.5375676224618134,0.6503810071355601,0.44457928080304254,0.5171461434730812,0.7717014694817259,0.9785542681813321,0.23288557303210358,0.902275975863218,0.583153125895318,0.500437441999519,0.899561033200775,0.5781337939653507,0.3771112390139473,0.27583591503192306,0.7187946887544279,0.3485388028982473,0.1517875381806878,0.9762983809268991,0.85832457517902,0.3653706734042812,0.7957760947794659,0.9560951265156313,0.6847804887607164,0.9441613894141492,0.10202388823382925,0.385302623555901,0.23848877382220712,0.7348104256038973,0.9962658611879437,0.9867179991286418,0.6493233162422108,0.957537131876389,0.1733504843146311,0.93759117210598,0.83796523053723],[0.22207032976209923,0.9747990069448613,0.5388232075503779,0,0.7683379515329196,0.9580817842645212,0.7482257403283128,0.30090708899018354,0.2820976702841293,0.13386664326279565,0.2180334245474872,0.5701279662434727,0.5684949196133974,0.9884570794607804,0.42711323003892576,0.957549022417408,0.7666790097220345,0.6016762666782521,0.9996945296180813,0.6464736723528989,0.19706186286066277,0.6830171070431816,0.4755461498646089,0.597539923077785,0.0618977654136949,0.9406195982715079,0.4394177080092695,0.09215898594723379,0.9616877447626895,0.866232103125648,0.2336474826110826,0.8376936796551194,0.3787363962278467,0.6552472753958287,0.7249379153609313,0.7944538536129551,0.990068698049371,0.9488404342818785,0.3372231097857108,0.951830029748058,0.9501496006307548,0.08852482492720094,0.8156788759394731,0.6300823920840608,0.24736057445089776,0.7498824680378473,0.3107416339985143,0.911717293331398,0.6939341092309762,0.14539192896118833,0.9267389624605807,0.4924603680783141,0.05651085309534146,0.3750802951192663,0.006958185968569009,0.1373394329941012,0.10018518467189025,0.017543830757205107,0.30951587663230273,0.8969809664778907,0.7249849379584938,0.5242967995910379,0.053433699258644454,0.887216021324931,0.5278323049955918,0.9234401003027006,0.1669633889293853,0.27346415967763493,0.9629655789606819,0.20051589051315385,0.4005922509298244,0.7296875923146059,0.9878536206800811,0.17039862995263275,0.34658551547751304,0.8577604267640528,0.1875589022254583,0.6571190734784813,0.44715870501781946,0.8247704966622844,0.2957764879960812,0.9823268758203776,0.8164808744887536,0.7733122982485641,0.939317065600589,0.7141756559303206,0.6817082634969909,0.6167627834501419,0.9877194689596187],[0.6155641102700572,0.4672552197947982,0.9660220980259733,0.7683379515329196,0,0.7458591841367068,0.9311605027068106,0.884080781742306,0.5637267621419502,0.8421459587121941,0.837357823133458,0.9617856856746548,0.2796028805251,0.6132220416157442,0.43900828131726566,0.3822883332589499,0.9359428389152706,0.9685294552794159,0.6059701898039781,0.1820332810561103,0.8534847913303758,0.11094427007709268,0.39173164994707127,0.245445586684691,0.7952381006628321,0.7966485928337257,0.42165568207752246,0.7000266466448996,0.41755387082369594,0.1487743429208908,0.8765043876469787,0.11726835688714012,0.9150807612546417,0.9623021331312157,0.05129043657398104,0.020386279409751445,0.6578129683846567,0.36499182691597054,0.9061608372931688,0.7754597916114881,0.40026163959244837,0.8016407161153801,0.06249381027346438,0.9726845304681787,0.5824402172063387,0.027369489861161507,0.9056411464884029,0.8512436043604307,0.12969249848346165,0.8273604180050347,0.2824590136631189,0.9601700080102455,0.7950989951136096,0.47358026006297255,0.7556109247389926,0.6712694835566397,0.8234517841980178,0.7787370413951956,0.5364858020203402,0.2068747782091961,0.9588755178632455,0.3396183875602788,0.7259973274987296,0.86804052402301,0.3289970692674406,0.8222454164962243,0.8445188963085583,0.8917661045933717,0.6927068411792371,0.8653145313366789,0.9435857190233367,0.07983516152776741,0.5392149848520589,0.8227407423816575,0.5045812240416715,0.16775063633932583,0.6306961539561364,0.16142987351715304,0.9559067382461839,0.920316156675386,0.8585113380459428,0.7049252013442221,0.04544224559882535,0.024392053701359283,0.7492317979066678,0.07862469669955698,0.9662449504098887,0.22448745297962072,0.5678237002942742],[0.9889575885240938,0.35741220487932607,0.6753464860863877,0.9580817842645212,0.7458591841367068,0,0.42902575111572006,0.8068226021757123,0.9828505006773103,0.9143296079362001,0.8332910010158843,0.6398374247172339,0.9070156840065252,0.1889959806723434,0.9678334364995403,0.4466550417001874,0.4167169044418499,0.6174381126183219,0.20992612563611188,0.8612178821042293,0.8687838010853144,0.8080019260240031,0.955802784094506,0.8926253731105225,0.9273730094197662,0.07426379450451165,0.9585192284786274,0.9681574518086616,0.40645753598121376,0.6492851693836198,0.8608707145780272,0.6597901991542174,0.7686701202714775,0.5577352526837112,0.7740550465331891,0.7549350402162415,0.13546647004473153,0.45950609768791095,0.797684749924767,0.03710581542475736,0.416635581215265,0.9109440745820059,0.7073983649805476,0.5949595315522695,0.9725419127633838,0.7692413325198345,0.8221347448564513,0.17033956134122433,0.8406820997950091,0.887369929548493,0.5413656986174834,0.7130886874181082,0.9318804072864758,0.9610589647852334,0.9482654037824239,0.9763556364406205,0.9238804007875561,0.9486527963705815,0.9756768378169992,0.6070381213237952,0.4856157920670284,0.9381704976311533,0.9627537987952268,0.21498562461649035,0.9288938588491048,0.12279080595637006,0.8863713859355518,0.8411568097299483,0.06534097309764482,0.878929959522866,0.7816040273996718,0.8122555658929361,0.28066227658735104,0.8608851326054237,0.9719115915792439,0.6166072202844776,0.9745579171111672,0.846198631881972,0.7516991722032105,0.34070167890720104,0.7845976395023023,0.06959663986361217,0.7391240714785378,0.7761525622569511,0.020583267822936756,0.7985603563181844,0.5368255416583827,0.8849731812933624,0.24478185484794118],[0.8752560055829337,0.720747884133891,0.28151857613975095,0.7482257403283128,0.9311605027068106,0.42902575111572006,0,0.4922074582328283,0.8975160139114406,0.6509218983409734,0.5523961142630031,0.23942859383001128,0.9673231344215224,0.595235046914204,0.9512328576534034,0.7827867262131654,0.014151550919330218,0.20797301917158295,0.6166038744130882,0.9666348192112799,0.5871878773702609,0.9410486119823067,0.9636747591895247,0.9691673030842353,0.6940665373460225,0.3586654702823939,0.9494478227553425,0.8001175126708546,0.7531329407713125,0.9000531741796891,0.564127002045117,0.8951011750300195,0.42671863867270793,0.13705568266560164,0.9334194598843764,0.9503848642162357,0.5540407713060422,0.7888428756682919,0.46807545852601584,0.3928823082073199,0.7556970774160787,0.6697544959021752,0.9226071042229598,0.1780292909400309,0.8735382151797597,0.9411926729887402,0.4989936258138416,0.27102321988388883,0.9720894429119761,0.6254510893284512,0.8429806151569895,0.33188879401259275,0.6998259834551819,0.9222425034940077,0.7430820313374356,0.8270541535701833,0.6735831458640213,0.7303498757898166,0.9042004540543377,0.8809344588016237,0.051526483517823136,0.9718668574107154,0.7783653162950048,0.22463203597173015,0.9661431732074429,0.31290150225179225,0.6143647998003814,0.5307180760990478,0.4863779439470352,0.5931751544251443,0.426915979318377,0.9659792359402265,0.6666631881268879,0.5951276282720911,0.9179879667735762,0.8702161626068168,0.8481763003425927,0.9595833875273044,0.3826261959676896,0.09920922440953507,0.479812231710588,0.49881208465820603,0.9479914059158654,0.957440921192682,0.4025830471957196,0.947984855202943,0.10959107632164036,0.9718807039196635,0.6385249229723224],[0.502293312409274,0.935790233376491,0.23986114499141128,0.30090708899018354,0.884080781742306,0.8068226021757123,0.4922074582328283,0,0.550574453691591,0.17030411067240706,0.07730913704399417,0.27643035160083607,0.767372912604611,0.8941760060710876,0.6681063265922536,0.9495350281688778,0.5121306100914934,0.31059689944764013,0.9105180148113013,0.8184237126178359,0.10132714581912412,0.8313789282118261,0.7050848781281408,0.787271464429637,0.2341555250436154,0.7669903325246754,0.67524558465087,0.38546762962629977,0.9401221389875141,0.9366303630307942,0.06944484122863441,0.9152639316194316,0.0730075028500075,0.3740210106594951,0.8560017287861728,0.9098438677362446,0.8787286711681981,0.9461018438743296,0.03047547619797058,0.788226749407882,0.9332808599140244,0.20704598761212858,0.9121836344880794,0.3419822100073353,0.5172377224021406,0.8760699574895289,0.015746218182966485,0.7126293803207441,0.852245399250508,0.15115240132997135,0.9535824126198915,0.18938025967773528,0.23997128144743196,0.6213021643011976,0.30172058727422973,0.4264585891803618,0.20097945334625372,0.27811822146898185,0.5710709218803129,0.949328992566877,0.45594817355792583,0.7404871181719043,0.35113823228458857,0.6775777864118088,0.7402359238631278,0.7371308788755834,0.13233870265922704,0.03256021767475055,0.8329335176961435,0.10274491253415563,0.09380127939693526,0.87334516831859,0.9226699132750191,0.12455843314177004,0.6011138014214132,0.9182483215180625,0.4676886059869152,0.8223598454810824,0.14092870208573594,0.585542064444292,0.021011576782044315,0.8513104271081199,0.9235622401679615,0.8987417382617039,0.7832909809118982,0.8551857404788499,0.40341074831254103,0.8011285694071487,0.911158733687962],[0.0576182086451588,0.8914261128601594,0.756387314517225,0.2820976702841293,0.5637267621419502,0.9828505006773103,0.8975160139114406,0.550574453691591,0,0.41242482121488205,0.4707746365462804,0.7778764952041315,0.310478431028855,0.9557713790679685,0.1473678453360509,0.8470683941255683,0.912819791101032,0.8035522692364397,0.9611881995201486,0.40415806038477325,0.4627971302624314,0.45791020523393744,0.20063187874169813,0.3445678657068975,0.3413470329666558,0.9888727919469125,0.1626820992897842,0.18496344944201965,0.8633291270499458,0.692860367556764,0.49856442326189854,0.6605688236368029,0.6196462106463101,0.8406611867611958,0.5109895158466219,0.5876793279153475,0.9734983308673206,0.8342993259726189,0.5857867641137642,0.989227633166749,0.8485091234215294,0.3627614203851731,0.6236704185832577,0.825953171915635,0.028927196857486275,0.5377726185334766,0.5661695134868111,0.9878850598701376,0.4589486065430433,0.41461224855650536,0.7871690442237559,0.7201112692758577,0.33758104076275836,0.0963171233857748,0.27331502307383826,0.14073712479704678,0.3806727189445448,0.3030615477864859,0.024665417404934373,0.7370257521025048,0.8906237787794918,0.2558683582792362,0.22316846409025676,0.9761647717475311,0.2622196491326963,0.985773279947079,0.43740203176178505,0.533561387124503,0.966734403485013,0.4700400150490495,0.6463523385960679,0.5041138449727216,0.9277612621051426,0.43010666540040055,0.0635657979752946,0.6941379488525431,0.08926056690071603,0.4196341912758128,0.6851709031564035,0.949664731498597,0.536170824983164,0.9853415587313852,0.6150276422804843,0.559653548669603,0.9704001472970436,0.4924248430392948,0.8615420999335778,0.3665608225405735,0.9383381598167269],[0.3560165167245209,0.9829832065866642,0.41530755186912827,0.13386664326279565,0.8421459587121941,0.9143296079362001,0.6509218983409734,0.17030411067240706,0.41242482121488205,0,0.09372816657762613,0.4503219667566534,0.6748097021812213,0.9715994748258681,0.5486904800355908,0.9794604616458596,0.6703153136893176,0.4837052223618392,0.9853194949341525,0.7425979964804026,0.06303943505677065,0.7696160878191287,0.5931803694831862,0.7004499179261162,0.06685875625673462,0.8860538576756171,0.5590769004425946,0.22873739686744257,0.9775699397182859,0.9216678264019726,0.09737083201725324,0.8958741188569601,0.2492448693124269,0.5434909343096652,0.8047260727887673,0.8684801343935044,0.9653489450166521,0.973000556844078,0.2054015799563479,0.9021647356219665,0.9679927842311266,0.043752714711608236,0.8818135968519331,0.5141129894475962,0.3776193312014378,0.8279376391806832,0.17635738291117312,0.8445703285214204,0.7849545839819984,0.02116564821472345,0.9637853875011747,0.36557256690522216,0.07171748829573095,0.49795300472210247,0.13838229421109935,0.27322923345196,0.027742488731127387,0.11039055862688428,0.4375265185767177,0.9449032155978075,0.6205578592782806,0.6371611607141724,0.19085167015439974,0.8146578245601886,0.6391790860322171,0.8626039654448187,0.032261573658497016,0.1381005981113194,0.9292291383975703,0.06311487536308988,0.267952863110157,0.814962370266534,0.9843187531761307,0.050410315364106915,0.4723755103041018,0.9087263965923876,0.3208253058351077,0.7505490994615567,0.31676187444232007,0.7368322799649978,0.17182796434907344,0.9483581740731358,0.887216021324931,0.8513748150099784,0.8930958251486867,0.7980889944401187,0.5718140837044611,0.7176988268770292,0.9789868495780015],[0.42080967700037164,0.9298614981730956,0.31759667044505696,0.2180334245474872,0.837357823133458,0.8332910010158843,0.5523961142630031,0.07730913704399417,0.4707746365462804,0.09372816657762613,0,0.3515375873861787,0.7012824469391228,0.9038983056252271,0.5933559166218878,0.9351253366298088,0.5719168245225034,0.3845965698851726,0.918880306469368,0.7583847959267828,0.03024601765840913,0.7766105196326251,0.6326317641494491,0.7232159444277676,0.15191953673319317,0.8003345512143926,0.6014293948525061,0.30240699589319076,0.9293516358202671,0.9015015986798706,0.03344256777853295,0.8781198188596698,0.15477016558596202,0.44382966176347166,0.805411825802029,0.8634704930396954,0.893449081682151,0.9302164565813638,0.11373531770201248,0.8184944587551714,0.9211377303892035,0.12483744392451762,0.8703576060852537,0.41474100343763254,0.4370001470873068,0.8268203167592825,0.08997981071689624,0.7540146533385611,0.7954954472545702,0.07075950119872879,0.9298436910706561,0.2693939917393731,0.15780659714472334,0.5452849909745907,0.21855360569947083,0.34379447393782686,0.12116254376394946,0.19546521996815167,0.4923475150818989,0.9189107119650339,0.5211230224376056,0.6707956447482655,0.2678882143300228,0.7222897931012267,0.6712571802490331,0.774408805488795,0.05617647404679167,0.057421298787148065,0.8529562674586794,0.03968911533829735,0.17702456414105602,0.8200695147850373,0.9241043922499406,0.042025408680806856,0.523648226630737,0.8854266407471497,0.3859834901827127,0.7637983785829411,0.2231821006478995,0.6401034741165216,0.07316563025935374,0.8718253687304187,0.8793029870430042,0.8499011861350861,0.8110530625509639,0.8023213555363897,0.472135938821235,0.738311482352551,0.9157985355654471],[0.7413238227026709,0.8681596814640913,0.03669261882765799,0.5701279662434727,0.9617856856746548,0.6398374247172339,0.23942859383001128,0.27643035160083607,0.7778764952041315,0.4503219667566534,0.3515375873861787,0,0.9243787082956041,0.7766757301291709,0.8660565488669167,0.909937118312256,0.25905910118252845,0.029165274033017836,0.7965473694009823,0.9492254129143801,0.38185350582972566,0.9415653704027287,0.8913112059884974,0.9352360009435506,0.5072406069125595,0.5803211607046601,0.8687218854545017,0.6416218893067447,0.8886561251496833,0.9698335526190962,0.3518200729139597,0.9568061222610303,0.20044021089854958,0.10018518467189025,0.9493824134712124,0.9849075472045066,0.745666600119779,0.9117547455316974,0.24519274582107248,0.6101175540078198,0.8868941274898949,0.48060702142273154,0.9706401306320206,0.061989804981047225,0.7482381689741683,0.9634427209545172,0.27693151111849773,0.5037482153092457,0.9688040908427072,0.42824208468413777,0.9458961593145574,0.09000152182166145,0.5131909610526522,0.8270203950907605,0.5682011309690758,0.6769543062366862,0.47862727475242195,0.5489533075815815,0.7919098434760231,0.9652073949128598,0.19026867635451533,0.9134328514122361,0.6123585337019406,0.460436001843545,0.9102395487520331,0.5397649090518777,0.4121259886306181,0.3133356369548692,0.6853215833032262,0.3846925615153495,0.1924434451148714,0.9757670177874066,0.8310517367261431,0.39887218170847233,0.8145017010718975,0.9443279945988109,0.7094059733175492,0.9473098906670592,0.1435501868839462,0.3436068176218464,0.27262422772526923,0.7009289260865595,0.9902150795419884,0.9834233257001126,0.6136440992334586,0.9570148842689714,0.13073274579396335,0.9435561036811757,0.8095218968753454],[0.371060175568856,0.7063361470617409,0.9159341151707585,0.5684949196133974,0.2796028805251,0.9070156840065252,0.9673231344215224,0.767372912604611,0.310478431028855,0.6748097021812213,0.7012824469391228,0.9243787082956041,0,0.8196735095454607,0.16452486694505697,0.6368355660097468,0.977595354126226,0.9409518258697528,0.8182114377687096,0.09521127136076377,0.706384397598536,0.1629166287938291,0.11173455996374394,0.03013074118055656,0.6131547548576586,0.9382267560254518,0.14704143272458,0.4818725755930338,0.6646860319577669,0.4296000219330464,0.737095838270492,0.3965112570126352,0.8192192569526133,0.9560972916835893,0.22239895626802464,0.298795500844276,0.8532860269171264,0.6209085237502192,0.797291971584662,0.9266228226641063,0.6477749947985647,0.627422462007676,0.34710508881132734,0.9544503561881197,0.33751130382230765,0.24809957164828364,0.7871545992844149,0.9680344883929204,0.15249902400838447,0.6677029305027372,0.551238414443392,0.8945149595188245,0.611191809661132,0.2095929784558095,0.5570382562337332,0.4437370295444659,0.6485249479865416,0.5847932532550117,0.2802404444235864,0.48394338807908294,0.9791697669390685,0.05541746006697348,0.5154570219101002,0.9715440716784556,0.04572518179138464,0.9509107304444175,0.6886777570473663,0.7631107302281699,0.8694788604919277,0.7165796814240817,0.8483433376559251,0.20326195071812161,0.7644840613528623,0.6727948997662517,0.24288050624346386,0.44143361456342745,0.39527756684253135,0.11449000421079068,0.8746210975541703,0.9873053709047779,0.7458106964056601,0.8854091143849362,0.329239517042305,0.2661330631457232,0.9027574775073723,0.19694896690690902,0.9687057866155532,0.052940581795138705,0.7857127210818312],[0.9741956398737543,0.17062880873639644,0.8069468895302999,0.9884570794607804,0.6132220416157442,0.1889959806723434,0.595235046914204,0.8941760060710876,0.9557713790679685,0.9715994748258681,0.9038983056252271,0.7766757301291709,0.8196735095454607,0,0.9109440745820059,0.2661330631457232,0.5862600324164654,0.7599202856069275,0.015746218182966485,0.7566919134488361,0.9372047573970167,0.6947089788863737,0.8887399432452149,0.7989589853841568,0.9702742657875653,0.26804030482705254,0.898866061066643,0.9791137322813271,0.2239444569201831,0.4936271076977534,0.9365972142144556,0.5104714698613529,0.8707616045685053,0.7091860967711332,0.6512262511581657,0.6170704498879402,0.05009529157934764,0.28122496450115886,0.8923193312141853,0.23183669867563947,0.2370529433399168,0.9584706333643117,0.5638583788836269,0.7424337986450014,0.9522692410917619,0.6410168826515404,0.9122528279541655,0.3611733506630677,0.7258550226104671,0.9457506215810788,0.37004219730874566,0.8365089422987955,0.9739235783253526,0.9145717634452705,0.9771822885941045,0.9783733526099522,0.9746365167847912,0.9834306944490971,0.9428582305012303,0.44379261116536944,0.6488272337328344,0.8606964777867154,0.9813948326946249,0.4024708602782533,0.8504376762498703,0.3146994817935803,0.9493268120583463,0.9243238515576183,0.11774078552916153,0.9485404141489822,0.8886014063229221,0.6893057041163281,0.08873404892123417,0.9228190677503586,0.9314749734790214,0.46204108487561574,0.9664206249325796,0.7391114907972156,0.8671522892169077,0.5194922774411024,0.869280158418856,0.11672621071800687,0.5962908861642392,0.643233018632676,0.20936575697944368,0.6784944428750731,0.692915509575143,0.7871651047209358,0.05177960856491914],[0.21065820747884828,0.8215094237476799,0.8503537578006138,0.42711323003892576,0.43900828131726566,0.9678334364995403,0.9512328576534034,0.6681063265922536,0.1473678453360509,0.5486904800355908,0.5933559166218878,0.8660565488669167,0.16452486694505697,0.9109440745820059,0,0.7639918381144923,0.964358734015627,0.8878279993888708,0.9130430785245508,0.2638458775597622,0.5913034936393476,0.3257663379219102,0.048377937114046574,0.2002736179865765,0.4807889333691267,0.9861460266186469,0.011666502456276614,0.3331043191319635,0.7862769038714075,0.580773986632178,0.6252993171870184,0.5476303965553625,0.73025226887601,0.9151440835248903,0.3831003170445803,0.46075746006087653,0.9367032863235037,0.7494675927168964,0.7014076098728342,0.9807152786111535,0.7702120994962841,0.49930704326356,0.5037482153092457,0.906364064345296,0.17883702978667707,0.4097701859989491,0.6858637600923435,1,0.32073924042552177,0.5467096358489748,0.690323601406077,0.8204829736746834,0.4777732557244817,0.04632631739858286,0.41702972977427133,0.290816937689432,0.5189270662457357,0.44634198218068993,0.11686197162847015,0.6307615869693276,0.9531133964903605,0.10554504938965392,0.36988704585789045,0.9954424819974417,0.11350013515983136,0.9906290136279117,0.5690277081813228,0.6567058455088468,0.9410739067221352,0.5999993361752815,0.758450198746408,0.3696209228249899,0.8691540127376831,0.5576557979648027,0.07787015153106772,0.5874810414989331,0.23974672026325636,0.28161638006745665,0.7920234018598276,0.988797411143335,0.6501238879115222,0.9586218101245733,0.4900976610792996,0.42987492520615594,0.9591917494170707,0.3606822373698952,0.9324166435715013,0.22301840835474307,0.8851368272937791],[0.881366507304343,0.09134885295065942,0.9307325195994551,0.957549022417408,0.3822883332589499,0.4466550417001874,0.7827867262131654,0.9495350281688778,0.8470683941255683,0.9794604616458596,0.9351253366298088,0.909937118312256,0.6368355660097468,0.2661330631457232,0.7639918381144923,0,0.7792266531911936,0.9023642702726513,0.25126521353341846,0.5544813809058098,0.9630182480571368,0.4847442214590515,0.7292344054769812,0.6088178376364799,0.9580871860205299,0.518514176733744,0.7488896956109543,0.9217228402004772,0.036496781635243954,0.2394583030791629,0.9727100717431546,0.26389219722051666,0.9484563916110538,0.867851030233973,0.4311753765982217,0.37873910360459206,0.3207232998983957,0.011607284786485053,0.9580353279133386,0.4865048545820029,0.02408154544702056,0.953555276732547,0.32137622495392754,0.8932000792159269,0.85323390424883,0.4141960015851116,0.970256128978124,0.6008443881176362,0.5116237676822172,0.9569045597280863,0.10317524041813274,0.9466891131584423,0.9602918164891162,0.7817296495059511,0.9449798854412215,0.9085840543358024,0.973161191073233,0.9590061243431558,0.8270541535701833,0.18278526423459665,0.8284695282418588,0.6887167392553526,0.9345673902968472,0.6341548866823783,0.6777727929838491,0.5590179128287157,0.9666487402066642,0.971727316260513,0.3784140822343923,0.9752576574397791,0.9720308726916758,0.4664269424761957,0.17424279498236203,0.9405557796226223,0.8058802188321589,0.21192387166868723,0.883298758292982,0.5345758456403902,0.9639915735839913,0.7304573698817399,0.9227114097823997,0.3832609049799433,0.35265748168515804,0.4098678803782433,0.4607931639741394,0.46029082657497705,0.859345855793966,0.592131228801762,0.20999848092770623],[0.8913901335029062,0.7152638744080942,0.3012463084099789,0.7666790097220345,0.9359428389152706,0.4167169044418499,0.014151550919330218,0.5121306100914934,0.912819791101032,0.6703153136893176,0.5719168245225034,0.25905910118252845,0.977595354126226,0.5862600324164654,0.964358734015627,0.7792266531911936,0,0.22728619042882456,0.6077309408101644,0.9750665791261901,0.6067866108305041,0.948194455709294,0.9759494742733816,0.9787964948694221,0.7129365835007492,0.34490643064072146,0.9622946035851165,0.8176236060109473,0.7488069056309516,0.9015830827829835,0.5839199101386076,0.8973592224954682,0.4468045892827122,0.15592595797903178,0.9393787644193888,0.9547918938131633,0.5439172686689331,0.7856943027474662,0.4881158916642031,0.37971252422950535,0.7518146332485026,0.6887422264393962,0.9259614435170349,0.19694896690690902,0.8892054564145522,0.9466267944882375,0.5190084148057036,0.25553399908678337,0.9794435508488537,0.6447681394098714,0.8416251098408155,0.3518142507221209,0.7186811527796529,0.936055618424007,0.761409272291354,0.8441085517838048,0.6927679576622042,0.7489614395826972,0.9190694799825033,0.8812115575852733,0.0679801688529024,0.9831959201789353,0.7962527105821315,0.2086875016581838,0.9773136410657969,0.2984159123158382,0.6338472965576274,0.5506399498057236,0.4755548019437156,0.6128501908177599,0.4470115736555842,0.9723364641579273,0.659467851154376,0.6144554580303296,0.9323100868497269,0.8714515361474395,0.8646161471416027,0.9676505287743516,0.40265697173231374,0.08094492358413018,0.4995852445190019,0.48747675168825205,0.9517636956812433,0.9625279922934177,0.3903779855697773,0.9544503561881197,0.12774358947453,0.9810994318840521,0.6306585269281868],[0.7685571719899246,0.8572731303402434,0.07119274265667762,0.6016762666782521,0.9685294552794159,0.6174381126183219,0.20797301917158295,0.31059689944764013,0.8035522692364397,0.4837052223618392,0.3845965698851726,0.029165274033017836,0.9409518258697528,0.7599202856069275,0.8878279993888708,0.9023642702726513,0.22728619042882456,0,0.7801201704310853,0.9625054087475231,0.4154608095032916,0.9523898802451494,0.9115583882084606,0.9506636202090449,0.5394785593845074,0.5556565043365003,0.8899451243035044,0.6713063921384206,0.8797076088661482,0.9710367737801184,0.38594097067461197,0.9591226837930257,0.23518135650096625,0.0663851704284074,0.9581163549799714,0.9911942367591762,0.7270679960730286,0.9048376126204419,0.2798289230035732,0.5864130159651478,0.878606227780187,0.5129903033203911,0.9749646554729097,0.026960637637126215,0.7744835415748548,0.9713607927382875,0.3115955369878255,0.47654012195440687,0.9802507177470594,0.4612414619386474,0.9421334793456658,0.12496479366100245,0.5454285655536177,0.8499024030463842,0.5994095065673097,0.705821271148427,0.5115694336971655,0.580773986632178,0.8167530973907349,0.9642803751776535,0.15695212776398623,0.9319781294911366,0.6427659943550234,0.4323840663056117,0.9284470038499838,0.5139146910019818,0.44554685007543776,0.3477534821927957,0.6652138431022874,0.4185854923592327,0.22755396086053295,0.9854539714066612,0.8173111892040658,0.43166829686835023,0.8383551235300928,0.9448013446707055,0.737091633286836,0.9598918390381619,0.17861708795005937,0.3128132974440676,0.3059265922282842,0.6803316706818662,0.9954372817459624,0.9908986054846864,0.5910854778634766,0.966734403485013,0.09668309292535018,0.9582719078609359,0.7946216924539022],[0.9809094846699452,0.15466644959868514,0.8264788220780261,0.9996945296180813,0.6059701898039781,0.20992612563611188,0.6166038744130882,0.9105180148113013,0.9611881995201486,0.9853194949341525,0.918880306469368,0.7965473694009823,0.8182114377687096,0.015746218182966485,0.9130430785245508,0.25126521353341846,0.6077309408101644,0.7801201704310853,0,0.7531000109879389,0.9519420260243182,0.6900827337539552,0.8896614245707246,0.796719960657207,0.9827135632119623,0.2892440371739521,0.9006645284070703,0.988479073643217,0.20886211470840077,0.4829389038743491,0.9519398514640055,0.5008630033824486,0.8882473994231433,0.729884358396795,0.6453488735233094,0.6089601279182679,0.06956906280690814,0.266859385700276,0.9092204370306128,0.25285967161470624,0.22272711051445734,0.9713522672999085,0.5550163394338665,0.7629089214439057,0.9584403951684656,0.6343501053082531,0.928777986797984,0.3826717581300585,0.7208969205289523,0.9596157472067329,0.3567896908225263,0.855498929603471,0.9862772421131855,0.9178898920698936,0.9883041540758578,0.9868355012848683,0.9877760664252072,0.9950929650093079,0.9476670916105462,0.43187054301604105,0.6700611544844871,0.8603911785375613,0.9915158842985268,0.4241038024389651,0.8500362527274149,0.33610444504706233,0.9635791575695802,0.9402861533554188,0.13878582210416818,0.9633567667712875,0.9064120101949842,0.6832695108150151,0.07163698919713891,0.9370346847616112,0.9354484399593187,0.4517167974534853,0.9738555511346613,0.7352180481378124,0.8855785214536575,0.5411658560614264,0.8854593557013043,0.13678596221020822,0.5874371638715721,0.6358204664348444,0.23067756709280438,0.6729299173386838,0.7138357024264262,0.7844026349744312,0.03532747861167172],[0.46238590400018775,0.6303672512097577,0.9451572976619377,0.6464736723528989,0.1820332810561103,0.8612178821042293,0.9666348192112799,0.8184237126178359,0.40415806038477325,0.7425979964804026,0.7583847959267828,0.9492254129143801,0.09521127136076377,0.7566919134488361,0.2638458775597622,0.5544813809058098,0.9750665791261901,0.9625054087475231,0.7531000109879389,0,0.7674321686426742,0.06587947050552886,0.2122820964879716,0.0593636888519141,0.6854240270450558,0.8997496421879612,0.2462356292164905,0.5652768133815395,0.5853589135730054,0.3351958818415981,0.795785188194693,0.3025758276643369,0.8635148149301594,0.9702689314668255,0.12507612314559893,0.19942848463250518,0.79459957617008,0.5379047712819501,0.8459199247963348,0.8845990203715101,0.5681575939393064,0.6970951296462914,0.25035660718623964,0.9728473446773432,0.4286017401510613,0.1494929205434074,0.8390493288667307,0.9387053683603618,0.05134499525931383,0.732722411992924,0.46270602475421674,0.928991893214263,0.6840774880652357,0.305823052296248,0.6344476923048219,0.5299820577615505,0.7186811527796529,0.660893763095846,0.37461533948594455,0.39153518273652627,0.984213574542143,0.15657448174408944,0.5965813497304966,0.9469886232180714,0.14668703136060784,0.9171760003492501,0.7525949086328296,0.8183125278481711,0.8177058012646412,0.7783135263194404,0.8927308406708585,0.1023994196760437,0.6941245597499343,0.7344518134719554,0.3387190873707533,0.3500691450597036,0.48372011111288354,0.014713602835412462,0.9143827970828674,0.9758890127988951,0.7951926015058294,0.8324442137503475,0.23021937749438373,0.16608780775672854,0.8596575397322056,0.09777325432517825,0.9799454666161039,0.03710581542475736,0.7182498413705187],[0.40991045792529673,0.9599597714121308,0.34645550245068524,0.19706186286066277,0.8534847913303758,0.8687838010853144,0.5871878773702609,0.10132714581912412,0.4627971302624314,0.06303943505677065,0.03024601765840913,0.38185350582972566,0.706384397598536,0.9372047573970167,0.5913034936393476,0.9630182480571368,0.6067866108305041,0.4154608095032916,0.9519420260243182,0.7674321686426742,0,0.7887275522048214,0.6327084142359172,0.7297102443281375,0.1293465379840203,0.8363111179638578,0.6003017664962139,0.28695952906862826,0.9582373427227943,0.9225308303762166,0.030845294619967985,0.8983870941679165,0.18027989444330952,0.4763134174619802,0.8196949541828017,0.8797076088661482,0.9275437266120108,0.957698182193074,0.13663265065533745,0.8542854432909586,0.9496701808329573,0.10260109081060709,0.8886607819165687,0.44615542461082347,0.42845072112343696,0.8417332368677796,0.10832214474321715,0.790211064815678,0.8064342418891605,0.04572518179138465,0.9549176358146764,0.29658312681315824,0.13496477982266641,0.54203511530809,0.19938791189621585,0.32999371345241596,0.09414523480521035,0.1737856045661335,0.48590385491342253,0.9416939664594145,0.5549327857973065,0.6731753350628292,0.25066118631995676,0.7584542862368335,0.6742204349505891,0.810542993035342,0.025138020540643288,0.07054196029803336,0.8877755605462168,0.006380495807544024,0.1994994676411987,0.8328999958242848,0.9558460996898221,0.027835095025409554,0.5187544067947564,0.9073761003067262,0.37475488580021543,0.7737425372607822,0.24793963812474148,0.6756720206509017,0.10388870710018232,0.9066916441161892,0.8964952286939069,0.8649666051055155,0.8466629412351231,0.8154164410998347,0.5049809119793001,0.7456097853374428,0.9481835401528718],[0.5131026812072129,0.5628412146710853,0.9407043163822616,0.6830171070431816,0.11094427007709268,0.8080019260240031,0.9410486119823067,0.8313789282118261,0.45791020523393744,0.7696160878191287,0.7766105196326251,0.9415653704027287,0.1629166287938291,0.6947089788863737,0.3257663379219102,0.4847442214590515,0.948194455709294,0.9523898802451494,0.6900827337539552,0.06587947050552886,0.7887275522048214,0,0.2767399962125477,0.12855132347407935,0.7166993124619895,0.8505836017957511,0.3082323034245625,0.6074338714302253,0.5166302147203292,0.26339771017057506,0.8149496831178471,0.23074797907771494,0.8709065233522264,0.9548731944012903,0.05371365085737968,0.13009117934283773,0.734655751471156,0.4679875652220292,0.8567746937958888,0.8334361851259431,0.49936475685393894,0.7260826971531579,0.17897224858707297,0.9604157651065379,0.4794755002635691,0.07925041719935627,0.8524965752294404,0.8948375986911995,0.02699226795879206,0.7575449624369108,0.39139628732853066,0.9285183366840222,0.7158874504010546,0.36355148645391816,0.6706063241851209,0.5751089111466263,0.747880418262943,0.6956700538103661,0.42944695710909014,0.3197302655912423,0.9624096916831735,0.22338655171182167,0.6363768618506869,0.9060249467579187,0.2129111480990028,0.8707449730119357,0.7763429666315866,0.8345224077864524,0.7613536231705943,0.8000709968080679,0.8999738517712161,0.04106052540527447,0.6288366812877757,0.75653211662658,0.3955578122027851,0.27838573917409487,0.5314085102079644,0.04523919087332415,0.9179620399906804,0.9431435865783472,0.8070532234190542,0.7753798170106614,0.16039376049409007,0.09822412127959246,0.8079916895253596,0.028986868246396704,0.9624408814286576,0.10773734461879646,0.6542257787650805],[0.2634866301959128,0.7910203964067669,0.8777781126489926,0.4755461498646089,0.39173164994707127,0.955802784094506,0.9636747591895247,0.7050848781281408,0.20063187874169813,0.5931803694831862,0.6326317641494491,0.8913112059884974,0.11173455996374394,0.8887399432452149,0.048377937114046574,0.7292344054769812,0.9759494742733816,0.9115583882084606,0.8896614245707246,0.2122820964879716,0.6327084142359172,0.2767399962125477,0,0.14776811126366607,0.5268382384334263,0.978352190721979,0.032015481293172,0.38325287715684137,0.7534964455397428,0.5369905361557489,0.6658590714850956,0.5037666051855495,0.7643610350301615,0.9352094426949678,0.3351287107733247,0.4125492718139482,0.9171760003492501,0.7141828872400164,0.737495203264184,0.9709077758055336,0.7370930349506987,0.5441899492702051,0.45771482492290605,0.9286041517840155,0.23102502289834043,0.3615334611583445,0.7235158337800855,0.9973802958137999,0.2694961008222688,0.5896882872811481,0.651192969434366,0.850382947759197,0.524116065091198,0.0984538124937823,0.46503144982336864,0.34194928123282897,0.5643187982621892,0.49401263832955317,0.17002024821713982,0.5887030463381192,0.9686758659696573,0.05150836048789827,0.41928409592425525,0.9953873579576701,0.06014041928678902,0.9854917896281462,0.611697885501249,0.6957784077591831,0.9254438551752566,0.6418807752437394,0.7929378062571941,0.31935589561879457,0.8423522443343654,0.5989396392922742,0.13121195132449126,0.5455664375227215,0.29137441950025017,0.23076557880140183,0.824424396253113,0.995832423924132,0.6859480605196134,0.9425167879677759,0.4424010035315784,0.38086662585488923,0.9485567813150957,0.31147744127411187,0.9510935727062902,0.1705875166951305,0.8601398870298015],[0.4044322414123131,0.6807488816378424,0.9283288468633284,0.597539923077785,0.245445586684691,0.8926253731105225,0.9691673030842353,0.787271464429637,0.3445678657068975,0.7004499179261162,0.7232159444277676,0.9352360009435506,0.03013074118055656,0.7989589853841568,0.2002736179865765,0.6088178376364799,0.9787964948694221,0.9506636202090449,0.796719960657207,0.0593636888519141,0.7297102443281375,0.12855132347407935,0.14776811126366607,0,0.6402759445752786,0.9265111361413051,0.18273559324263325,0.5126791304103899,0.6378167095600396,0.39683977527184083,0.7596360168573759,0.3638895695345078,0.8368092991903286,0.9632106271645271,0.18820904948210557,0.26394236788222764,0.8341704072580008,0.5926325403119195,0.8163782927223263,0.9136163500274777,0.6207789170886517,0.653657597086451,0.3133519462960634,0.9630601663123846,0.37075894156283407,0.2135004328264369,0.8073759832989097,0.9596416341694625,0.11658179993789874,0.692366876329832,0.5208285164724501,0.9087389216505528,0.6385249229723224,0.24439941223100045,0.5858712412173679,0.47547043753960183,0.6749565569147327,0.6132085848491149,0.314524037624754,0.4520011668667075,0.9830685081255295,0.09143444747560055,0.5455211135553543,0.9648673758972661,0.08180364403665269,0.9409155285269504,0.7129843910566617,0.784461931981854,0.8528859347256741,0.7401591531782168,0.866002800701226,0.16764867604555564,0.7410171398632505,0.6962872990593149,0.2776044676622412,0.40983281324213566,0.42769964050998716,0.07905460855979211,0.8906841820127637,0.9853478625832525,0.7650907939679511,0.8684039034516668,0.29455553854511063,0.23095908946955904,0.889334593415182,0.1620447544248671,0.9747936972344285,0.016869205439124808,0.763327378699024],[0.2838998825125761,0.9686117472065939,0.4746628196098016,0.0618977654136949,0.7952381006628321,0.9273730094197662,0.6940665373460225,0.2341555250436154,0.3413470329666558,0.06685875625673462,0.15191953673319317,0.5072406069125595,0.6131547548576586,0.9702742657875653,0.4807889333691267,0.9580871860205299,0.7129365835007492,0.5394785593845074,0.9827135632119623,0.6854240270450558,0.1293465379840203,0.7166993124619895,0.5268382384334263,0.6402759445752786,0,0.9050114097298327,0.4918979392773442,0.15598385263255285,0.9592478615976363,0.8836266362410827,0.16585154509700578,0.856452306680618,0.3124896707877458,0.5953666952008275,0.7549747342348199,0.8215396311990333,0.9681980797864712,0.9504774289264836,0.27032669424188016,0.9184387510517753,0.9486495232890555,0.02116564821472345,0.8385869997844383,0.5686399450194124,0.3064771144991065,0.7790396018074007,0.24329871025400518,0.8705109097862743,0.7301178613675426,0.07773336197090336,0.9348109789956557,0.4271805633698857,0,0.4294684851012698,0.06560345101475375,0.20061675353576675,0.03367979939776312,0.038510070392769616,0.36719494698676025,0.9105498341164996,0.6679997051277857,0.5727686893854749,0.11804353915309249,0.8436183285592599,0.5753938343463478,0.885017602465458,0.09912005123103258,0.20581510853329618,0.9368458019275524,0.13266968300173376,0.3336414521402538,0.7627585462358061,0.9760184170257402,0.10396453687211417,0.4028379029607789,0.8728037003741107,0.24878736815597344,0.6945662650164882,0.38082623659862846,0.7745689454820566,0.23054989193815334,0.9561481717278912,0.8418499494288517,0.8025339378435873,0.9074445177162883,0.7464532513068927,0.6225694369330091,0.6584011118391186,0.9733930536156042],[0.9898605901827303,0.4323365431289721,0.617738766371062,0.9406195982715079,0.7966485928337257,0.07426379450451165,0.3586654702823939,0.7669903325246754,0.9888727919469125,0.8860538576756171,0.8003345512143926,0.5803211607046601,0.9382267560254518,0.26804030482705254,0.9861460266186469,0.518514176733744,0.34490643064072146,0.5556565043365003,0.2892440371739521,0.8997496421879612,0.8363111179638578,0.8505836017957511,0.978352190721979,0.9265111361413051,0.9050114097298327,0,0.9780516427977074,0.9586736367025407,0.4794325877630677,0.7099008123452304,0.8253708143962654,0.7179103624565265,0.7229159316871484,0.492610799003395,0.8207387607957998,0.8076333309317197,0.21540947915350686,0.5304443719458266,0.754811838695161,0.031601743707543206,0.4885141447571491,0.8868288015341551,0.7627910622867646,0.5311933296209767,0.9758943165859812,0.8180635711956603,0.7809160563298573,0.0907906425868886,0.8834908157555047,0.8589449542572741,0.6089398027510965,0.6586534617301354,0.9098268086766976,0.9752353668872609,0.9315271898594029,0.9704822815658455,0.8982477316456415,0.9294551893084798,0.984125215854766,0.6709433703473019,0.415939997940718,0.9650947835047126,0.9501365287341368,0.13672757723315865,0.9563137838768297,0.043204885816353976,0.8560138116951083,0.802702675514121,0.1445707774150614,0.84582700216896,0.7335524097568008,0.8585510952533012,0.35800217775511817,0.8312806597944625,0.9835064841106882,0.6771921799838272,0.972898418064165,0.8859078968478816,0.7003083641295472,0.2653395405032526,0.7462206655111406,0.14979413573063058,0.7939032512600391,0.8267127547908558,0.053011279643230304,0.8438867608034459,0.4698277258235447,0.9205859739256397,0.3227827509191917],[0.22561910290945159,0.8073759832989097,0.8538167708191507,0.4394177080092695,0.42165568207752246,0.9585192284786274,0.9494478227553425,0.67524558465087,0.1626820992897842,0.5590769004425946,0.6014293948525061,0.8687218854545017,0.14704143272458,0.898866061066643,0.011666502456276614,0.7488896956109543,0.9622946035851165,0.8899451243035044,0.9006645284070703,0.2462356292164905,0.6003017664962139,0.3082323034245625,0.032015481293172,0.18273559324263325,0.4918979392773442,0.9780516427977074,0,0.34632839790582864,0.7716130717592317,0.5639223482641985,0.6339400774049773,0.5307588286050565,0.7362501577016847,0.9159612286991634,0.36566506476933036,0.4433129935697842,0.9253309089147513,0.7342492263331629,0.7081936269878615,0.97203726234071,0.7554686831185513,0.5098600313782264,0.4865577243614287,0.9079506473573693,0.1933025250303582,0.3923152399533715,0.6932894662973528,0.9934446377475706,0.30312220913025284,0.5563959601869372,0.6743123023808635,0.8248707886696306,0.48902571361169533,0.060580193973341856,0.4291023643558119,0.30462147855163785,0.5297313089639275,0.4582536056171735,0.1320748560753387,0.614203596890312,0.9523822728192696,0.08852482492720094,0.38269587711241326,0.989667084053772,0.09619484216087985,0.983316999069732,0.5785829691422162,0.6647186440935544,0.930751421681489,0.6092124428071838,0.7646097712563347,0.3520237899713117,0.8559111015696301,0.5665862368941255,0.09324637032741183,0.5709373399396296,0.25385173985545184,0.26400024552090906,0.7973684682324687,0.9852511991157008,0.6567812827624921,0.9481748076178217,0.472708533080331,0.41235760249630565,0.950270507203086,0.34314171068591726,0.9327528838875113,0.20546563133024756,0.8723437237772949],[0.12405470476988777,0.9481922726079997,0.613676036113556,0.09215898594723379,0.7000266466448996,0.9681574518086616,0.8001175126708546,0.38546762962629977,0.18496344944201965,0.22873739686744257,0.30240699589319076,0.6416218893067447,0.4818725755930338,0.9791137322813271,0.3331043191319635,0.9217228402004772,0.8176236060109473,0.6713063921384206,0.988479073643217,0.5652768133815395,0.28695952906862826,0.6074338714302253,0.38325287715684137,0.5126791304103899,0.15598385263255285,0.9586736367025407,0.34632839790582864,0,0.9299394002625533,0.8088779492951422,0.3237223664018113,0.7788471975038496,0.4607931639741394,0.7193419987820445,0.6532500989648575,0.7257112665791275,0.9862394538299298,0.911581090625231,0.42183101244076393,0.9662203105910626,0.9171929236007977,0.18033581115344313,0.7518407469976911,0.6977747666653695,0.1505213425627464,0.6790268187577029,0.397815988041709,0.9392454458498122,0.6154250083719272,0.235970478097372,0.8809966961510013,0.5706538271268465,0.1514239712920254,0.28083664633516325,0.08492870929581206,0.039230412040110865,0.19555310566977824,0.11435156656886579,0.21321549290455047,0.8442788381776285,0.782560895147797,0.43425239623933276,0.0327759668258025,0.9189985444491039,0.43863127574903377,0.946237483841369,0.2585280149320814,0.3620092863401095,0.96584527973755,0.2921580337612278,0.48481001433317256,0.6544276811090552,0.9692100250421105,0.25690058397696125,0.2510707825754971,0.8034789304149278,0.08989291711647694,0.5774915152724706,0.5288517886171724,0.8686802090043305,0.37632740178005764,0.985137712580458,0.7496343972201086,0.7021948922866679,0.9513917048064979,0.6399535324769627,0.744024167554204,0.5329085028295953,0.9726983654082022],[0.8951716801885677,0.049006916206033216,0.9109440745820059,0.9616877447626895,0.41755387082369594,0.40645753598121376,0.7531329407713125,0.9401221389875141,0.8633291270499458,0.9775699397182859,0.9293516358202671,0.8886561251496833,0.6646860319577669,0.2239444569201831,0.7862769038714075,0.036496781635243954,0.7488069056309516,0.8797076088661482,0.20886211470840077,0.5853589135730054,0.9582373427227943,0.5166302147203292,0.7534964455397428,0.6378167095600396,0.9592478615976363,0.4794325877630677,0.7716130717592317,0.9299394002625533,0,0.27863836719581625,0.966382064951403,0.30155467287997345,0.9356387092100115,0.8426861242661337,0.46463102902848885,0.4154608095032916,0.2787810577984756,0.05279893087142056,0.9470858890798252,0.4468045892827122,0.011368389447442326,0.9535411657678338,0.35858548177607397,0.8692932479671678,0.8679177748723679,0.4488610344777141,0.960547241045806,0.5634250256901917,0.5444776322430477,0.9543798650519799,0.14455001821737046,0.928991893214263,0.9616931263888551,0.8017026161288645,0.9492603041570671,0.9187485377684899,0.9727068791202363,0.9621171044673655,0.8443964261380331,0.22317755521886068,0.8001381855260451,0.7149345473890049,0.9411431888542804,0.5978936058733432,0.704051471265429,0.5208463100954739,0.9632106271645271,0.9636522023535987,0.33759316748126905,0.9704001472970436,0.9584663136800939,0.5006512953015828,0.1317953830143785,0.9369120809152887,0.8247567055643644,0.24992551704034327,0.8955137252805662,0.5657634166799133,0.9483701789811174,0.6973558088390215,0.9134453123537235,0.3418953910597694,0.390293885105435,0.44578899496031804,0.4213364936923278,0.49358541088833296,0.8330303511356039,0.6219178740086607,0.16760667498511067],[0.7392233116285908,0.33190729039452516,0.9807078895823906,0.866232103125648,0.1487743429208908,0.6492851693836198,0.9000531741796891,0.9366303630307942,0.692860367556764,0.9216678264019726,0.9015015986798706,0.9698335526190962,0.4296000219330464,0.4936271076977534,0.580773986632178,0.2394583030791629,0.9015830827829835,0.9710367737801184,0.4829389038743491,0.3351958818415981,0.9225308303762166,0.26339771017057506,0.5369905361557489,0.39683977527184083,0.8836266362410827,0.7099008123452304,0.5639223482641985,0.8088779492951422,0.27863836719581625,0,0.9408539298518676,0.02727558588584355,0.9557367240553869,0.9534293561722451,0.2044384693667916,0.13856257982269907,0.5434454391178977,0.2219058387733942,0.953867835667156,0.683781591305541,0.2618971070197283,0.8859709548560057,0.08124404883378729,0.9699829692107959,0.7073399622009666,0.18209421500124112,0.9583053916569484,0.7770695392697011,0.2843415119805163,0.9036052173536914,0.13287239388866914,0.9833422658387984,0.8843791275040019,0.610049928141561,0.8533260258903794,0.785420608427354,0.9073624162097859,0.8734399205398121,0.6677554938680624,0.05338106127780087,0.9355590662957516,0.4878902832461394,0.8304044414636236,0.8009788631606084,0.4770234025477481,0.7421874343218382,0.9182494484354379,0.9501201886120314,0.5886610104453173,0.9347545163225823,0.9828873652163701,0.23432463380704022,0.41029095772608676,0.8943564886375047,0.6391451827725542,0.02677021361585383,0.7497763588211269,0.31453378704269863,0.9874731276243913,0.8722524111118092,0.9100178519960829,0.5980867499705079,0.10973521083054971,0.1720855468546694,0.6571693345949408,0.232903015249135,0.9524855113051992,0.3768419760030234,0.44262395086671735],[0.44624065181519396,0.9660563863337226,0.31511821035575077,0.2336474826110826,0.8765043876469787,0.8608707145780272,0.564127002045117,0.06944484122863441,0.49856442326189854,0.09737083201725324,0.03344256777853295,0.3518200729139597,0.737095838270492,0.9365972142144556,0.6252993171870184,0.9727100717431546,0.5839199101386076,0.38594097067461197,0.9519398514640055,0.795785188194693,0.030845294619967985,0.8149496831178471,0.6658590714850956,0.7596360168573759,0.16585154509700578,0.8253708143962654,0.6339400774049773,0.3237223664018113,0.966382064951403,0.9408539298518676,0,0.9175053839016187,0.14746970685750535,0.4487877501429818,0.8442506636471753,0.9026336871702519,0.9247794002354083,0.9680034777761846,0.10291724780540369,0.8447062415432454,0.9583799159322657,0.13924562360492918,0.9097130734911166,0.41722174408882545,0.46433215065765754,0.865778216965989,0.07311295626235664,0.7756996663183358,0.8335106287756874,0.08240685509652243,0.968526248959784,0.2640966806863404,0.1714056587656763,0.5764463016903456,0.23613831904758306,0.3666586654015104,0.12974623528743753,0.21031174078753606,0.5212889801336719,0.9580817842645212,0.5295776916563647,0.7052869863026071,0.2874569027129686,0.7424435401997105,0.7060451123912372,0.7978545055548528,0.06090812668834832,0.03479417916387066,0.8826707687654731,0.028355142424154933,0.16483006173877876,0.8585944646670856,0.9588064296006227,0.06250902523746989,0.553700316430658,0.9247044235252241,0.41112084223869666,0.801500133878457,0.2141260020590505,0.655207895073159,0.07842743602010545,0.9014040376646011,0.9185750699955609,0.8888877699147792,0.8381577318642912,0.8409059599137438,0.47796268970662753,0.775059836714267,0.9497649942769476],[0.7074713617317155,0.35363199377384424,0.9663938473301111,0.8376936796551194,0.11726835688714012,0.6597901991542174,0.8951011750300195,0.9152639316194316,0.6605688236368029,0.8958741188569601,0.8781198188596698,0.9568061222610303,0.3965112570126352,0.5104714698613529,0.5476303965553625,0.26389219722051666,0.8973592224954682,0.9591226837930257,0.5008630033824486,0.3025758276643369,0.8983870941679165,0.23074797907771494,0.5037666051855495,0.3638895695345078,0.856452306680618,0.7179103624565265,0.5307588286050565,0.7788471975038496,0.30155467287997345,0.02727558588584355,0.9175053839016187,0,0.9365010760536726,0.9438149324684649,0.17210309572868956,0.10954599739956188,0.5588132517919348,0.2463718780949125,0.9333751101189092,0.6930421707094601,0.284499330183829,0.8593976103201516,0.05177960856491914,0.9591270005393333,0.6754412586726575,0.15052134256274644,0.9369573688774,0.7819993387703916,0.25242872679711426,0.8782906224466552,0.16033113787207862,0.9673969682544368,0.8570764452193067,0.5771701106367789,0.8247955707992247,0.7547324315862364,0.8808827867405428,0.8453512262169274,0.6352717094547238,0.08367084200688839,0.9289785254970508,0.45470183411407805,0.8009582118434218,0.8041914509791166,0.44382966176347166,0.7485308734197783,0.8933518052039305,0.9277869167963272,0.6010966449037314,0.910566879718439,0.9639454003015692,0.20304777969999807,0.42996333548422644,0.8697548268705984,0.6064023481960946,0.04608669647997843,0.7185043461601114,0.2819240643570597,0.9699573565626284,0.8710870444000643,0.8887818493484669,0.611365609134844,0.08284191391213562,0.14211516911197924,0.6664556662851182,0.20079818297661228,0.9438949796330385,0.3440326226637728,0.4611322150305884],[0.574061199632153,0.9267434290870212,0.16221825228936967,0.3787363962278467,0.9150807612546417,0.7686701202714775,0.42671863867270793,0.0730075028500075,0.6196462106463101,0.2492448693124269,0.15477016558596202,0.20044021089854958,0.8192192569526133,0.8707616045685053,0.73025226887601,0.9484563916110538,0.4468045892827122,0.23518135650096625,0.8882473994231433,0.8635148149301594,0.18027989444330952,0.8709065233522264,0.7643610350301615,0.8368092991903286,0.3124896707877458,0.7229159316871484,0.7362501577016847,0.4607931639741394,0.9356387092100115,0.9557367240553869,0.14746970685750535,0.9365010760536726,0,0.30143949597888486,0.891097602601477,0.9403301792180155,0.8508000122446543,0.9464594978952361,0.038999305069302194,0.7467674048604789,0.9301541538736048,0.2853765272686038,0.9380910683081101,0.2672866292376394,0.5870526570675454,0.9096766752479643,0.07059640348268963,0.661772493470085,0.893699172899638,0.22989723195306447,0.9614509235729602,0.1106766734471227,0.3183458283802216,0.6851874795806053,0.3789962175671012,0.5006410159586016,0.2798726525125074,0.3561804869909212,0.638597640542988,0.9637263157012569,0.3865145953570372,0.7964487291583778,0.42747141927530546,0.6240458019014092,0.7954018762379135,0.6897534629981735,0.21129675541109877,0.1077373446187965,0.8004740451467149,0.18132277387359746,0.023273039174237366,0.9110815076273329,0.9067817935226287,0.2026087906100379,0.6668876732413713,0.9352094426949678,0.5399309230333621,0.8658773754285006,0.06247859192647611,0.524110170537381,0.07862469669955698,0.8182556662041127,0.9518354667629315,0.9317937813642758,0.7441505293941265,0.8926091462332681,0.33146618407182077,0.8492632864358116,0.8923541139533485],[0.809740263589478,0.8167277781300266,0.14281690704114566,0.6552472753958287,0.9623021331312157,0.5577352526837112,0.13705568266560164,0.3740210106594951,0.8406611867611958,0.5434909343096652,0.44382966176347166,0.10018518467189025,0.9560972916835893,0.7091860967711332,0.9151440835248903,0.867851030233973,0.15592595797903178,0.0663851704284074,0.729884358396795,0.9702689314668255,0.4763134174619802,0.9548731944012903,0.9352094426949678,0.9632106271645271,0.5953666952008275,0.492610799003395,0.9159612286991634,0.7193419987820445,0.8426861242661337,0.9534293561722451,0.4487877501429818,0.9438149324684649,0.30143949597888486,0,0.9561178605361592,0.9839232235238092,0.6732734773236302,0.871561922335774,0.3453276955001454,0.5247464040529314,0.8428333824834913,0.5694387414363106,0.9636962414025548,0.03507439110583892,0.8131346690587551,0.9675852726734729,0.37705685770426467,0.41001062319739073,0.9839611002254173,0.5198588437246052,0.9147946260028816,0.19579588454443717,0.6012904853448588,0.8800097784079338,0.6520007638463712,0.7515176978590777,0.5697807434863884,0.6352343509367608,0.8517488980961897,0.9424366244790753,0.08464175116307865,0.9516266632241195,0.6929095484856153,0.36483175328846607,0.947338296863275,0.44922727916810057,0.5056226133742201,0.4119590474774904,0.6091023852817207,0.48043574802822187,0.2965142673992076,0.9853699257491073,0.7717095051400538,0.4897994301105683,0.8708483211451455,0.9258317939491667,0.7795648244900474,0.9661431732074429,0.24882416199754911,0.2422099139224412,0.3665104933466667,0.6233444639081209,0.9859402457756078,0.9861145323175016,0.5312301684484262,0.9667943632912943,0.02463138057188248,0.9692100250421105,0.7470288688383585],[0.5643279298064164,0.512518451966484,0.9511632177135443,0.7249379153609313,0.05129043657398104,0.7740550465331891,0.9334194598843764,0.8560017287861728,0.5109895158466219,0.8047260727887673,0.805411825802029,0.9493824134712124,0.22239895626802464,0.6512262511581657,0.3831003170445803,0.4311753765982217,0.9393787644193888,0.9581163549799714,0.6453488735233094,0.12507612314559893,0.8196949541828017,0.05371365085737968,0.3351287107733247,0.18820904948210557,0.7549747342348199,0.8207387607957998,0.36566506476933036,0.6532500989648575,0.46463102902848885,0.2044384693667916,0.8442506636471753,0.17210309572868956,0.891097602601477,0.9561178605361592,0,0.07171748829573095,0.6934637124628035,0.41414642090213927,0.8796887933455677,0.8015749421520739,0.4473149797602171,0.762757191370501,0.11937195255072436,0.9641601410942128,0.5309450863834639,0.02089544294184203,0.8773914718427381,0.8701864446878377,0.07500049351598685,0.7911732795070362,0.3348598941114044,0.9422521128964915,0.7545270299231003,0.418987636110181,0.7123350956459207,0.6228659809982959,0.7845976395023023,0.7363778428627534,0.48320086437619825,0.2615001972267491,0.9580558554143427,0.2825601087101326,0.6805911298510788,0.884184921622871,0.27198418182304274,0.8436183285592599,0.8091220448527846,0.8615613090389797,0.7241551860406336,0.831317978273282,0.9199202824752042,0.03239760925470563,0.5813984904202203,0.7882201923036095,0.4504338013720783,0.22089343323778346,0.5808609602175366,0.10442785750520636,0.9349659571522232,0.9289707275737434,0.8309708521967356,0.7373368842200126,0.10132714581912408,0.04314128140289941,0.7756956690097783,0.023237378705024847,0.961839495143413,0.16733642509106908,0.6083432986599134],[0.6401292670192307,0.46645560396098534,0.989667084053772,0.7944538536129551,0.020386279409751445,0.7549350402162415,0.9503848642162357,0.9098438677362446,0.5876793279153475,0.8684801343935044,0.8634704930396954,0.9849075472045066,0.298795500844276,0.6170704498879402,0.46075746006087653,0.37873910360459206,0.9547918938131633,0.9911942367591762,0.6089601279182679,0.19942848463250518,0.8797076088661482,0.13009117934283773,0.4125492718139482,0.26394236788222764,0.8215396311990333,0.8076333309317197,0.4433129935697842,0.7257112665791275,0.4154608095032916,0.13856257982269907,0.9026336871702519,0.10954599739956188,0.9403301792180155,0.9839232235238092,0.07171748829573095,0,0.6629942377322108,0.361275465091476,0.931737137011309,0.7855153594795367,0.39826456341354627,0.8279726094412462,0.05185172641068265,0.9948931862140361,0.6069055813607465,0.045076165314922444,0.9314183098607856,0.8644426601175336,0.14460536971710042,0.8536750288386208,0.2757841656227938,0.9844155076539175,0.821389841762717,0.49647095613118475,0.781736260640783,0.696635743585599,0.849784354593131,0.8049341715001735,0.5601670626587223,0.19776860131388999,0.9790122274262668,0.35942163722564346,0.7518902232126866,0.8823765389567788,0.34895282167268804,0.8344282249104029,0.8708103094550199,0.9177343039394222,0.7001844812801469,0.8915468072643424,0.9687827212019079,0.09280441659216597,0.5404801267184343,0.8490001968807007,0.5277698641923887,0.16146720331235623,0.6557007676860096,0.17910736858540738,0.9806814997422177,0.9374255851831982,0.8842211922035785,0.7118578952983544,0.025037355219688827,0.028355142424154933,0.7591583709412851,0.09594983949757145,0.9873903012849004,0.24235676074442858,0.5701550842079741],[0.9885586675712075,0.22609086501840947,0.777695766765863,0.990068698049371,0.6578129683846567,0.13546647004473153,0.5540407713060422,0.8787286711681981,0.9734983308673206,0.9653489450166521,0.893449081682151,0.745666600119779,0.8532860269171264,0.05009529157934764,0.9367032863235037,0.3207232998983957,0.5439172686689331,0.7270679960730286,0.06956906280690814,0.79459957617008,0.9275437266120108,0.734655751471156,0.9171760003492501,0.8341704072580008,0.9681980797864712,0.21540947915350686,0.9253309089147513,0.9862394538299298,0.2787810577984756,0.5434454391178977,0.9247794002354083,0.5588132517919348,0.8508000122446543,0.6732734773236302,0.6934637124628035,0.6629942377322108,0,0.3354034179400627,0.8746896944005417,0.17852113380143206,0.29132187153837513,0.9550043448499608,0.6109892630875764,0.7079266928516383,0.9680858141408167,0.6845980187426546,0.8960577255791606,0.3102150089469508,0.7663271043785955,0.9390691279542689,0.42303689666335764,0.8099100639598374,0.9721107403042956,0.9374984470097271,0.9791676524815508,0.9880307151398278,0.9702977364525511,0.9837548650898028,0.9621267870765977,0.495217328407085,0.6088466371372145,0.8918299112141663,0.9863402193873936,0.35302613504434166,0.8817948259671855,0.26311529109492837,0.9413213196406277,0.910249779614905,0.06529713276703117,0.9385763654102581,0.8672310149521504,0.7317291351667939,0.14472983624895355,0.9149993405096352,0.9528038505141206,0.5114627615043067,0.9788937918728238,0.7776200078915578,0.8431216891785132,0.4736997000635965,0.8545142370704442,0.06132740578104644,0.6433709752485045,0.6880147244795467,0.15754562916757744,0.7201327856446006,0.6554409924360448,0.823425413676963,0.10780145356524981],[0.8693646420577015,0.10773734461879646,0.9318437588344047,0.9488404342818785,0.36499182691597054,0.45950609768791095,0.7888428756682919,0.9461018438743296,0.8342993259726189,0.973000556844078,0.9302164565813638,0.9117547455316974,0.6209085237502192,0.28122496450115886,0.7494675927168964,0.011607284786485053,0.7856943027474662,0.9048376126204419,0.266859385700276,0.5379047712819501,0.957698182193074,0.4679875652220292,0.7141828872400164,0.5926325403119195,0.9504774289264836,0.5304443719458266,0.7342492263331629,0.911581090625231,0.05279893087142056,0.2219058387733942,0.9680034777761846,0.2463718780949125,0.9464594978952361,0.871561922335774,0.41414642090213927,0.361275465091476,0.3354034179400627,0,0.9552395037236483,0.4989276184009238,0.038228075318237346,0.946390602520756,0.3038794738218994,0.8962805439125543,0.840961300819196,0.39697679422881055,0.9669346119762595,0.6115562260731044,0.49467672082605546,0.9507017250682513,0.08597700199737182,0.9468377868541351,0.9525909117601744,0.7678616392149946,0.9362258677910492,0.8977788090800521,0.9661538870989729,0.9506723300249651,0.8139582104045431,0.16533548451912808,0.8338046166750782,0.6731722678886469,0.9249953441725253,0.6440939660440173,0.6622168808822394,0.5702689657225405,0.9607972115336307,0.9677307556910045,0.39185733804041284,0.9699616253840034,0.9703425425188665,0.44926159950048367,0.1902049722088568,0.934798801058688,0.792327449920516,0.19439198951944947,0.8718170630693921,0.5179419463550455,0.9632052539648917,0.7384416121863127,0.9192327236411363,0.3972248609480974,0.33512871077332473,0.3924825698045286,0.4730478473272494,0.44328053717762245,0.8636345925198432,0.5757753052225447,0.22558311972107964],[0.5381115546196344,0.9406779115506471,0.20716819583382606,0.3372231097857108,0.9061608372931688,0.797684749924767,0.46807545852601584,0.03047547619797058,0.5857867641137642,0.2054015799563479,0.11373531770201248,0.24519274582107248,0.797291971584662,0.8923193312141853,0.7014076098728342,0.9580353279133386,0.4881158916642031,0.2798289230035732,0.9092204370306128,0.8459199247963348,0.13663265065533745,0.8567746937958888,0.737495203264184,0.8163782927223263,0.27032669424188016,0.754811838695161,0.7081936269878615,0.42183101244076393,0.9470858890798252,0.953867835667156,0.10291724780540369,0.9333751101189092,0.038999305069302194,0.3453276955001454,0.8796887933455677,0.931737137011309,0.8746896944005417,0.9552395037236483,0,0.7774033236597755,0.9408495297931525,0.2432318447782132,0.9322212803365282,0.3117758762362931,0.5526199080468209,0.899183697321213,0.02583375209255553,0.6968625103627355,0.878394266468738,0.18709008779750244,0.9660306702163087,0.15541042589766157,0.2761203670757571,0.6551086462552902,0.3381202660631063,0.46269046838518346,0.2366282652016233,0.3143777607479557,0.6058901900205169,0.9645851876891749,0.4293775818923188,0.7718166393178792,0.3875614222339697,0.6603484620561095,0.7712942207201647,0.7232159444277676,0.1677206542314302,0.06285804086157085,0.8266439578747306,0.13699012182960993,0.057421298787148065,0.898078394553222,0.9243876641905662,0.16089389531164527,0.6354617169237137,0.9345673902968472,0.503592896554126,0.8492693755133934,0.10541419675391692,0.5638583788836269,0.04568485725441924,0.844745419643318,0.9445723690935195,0.9216521075745513,0.7736343317867285,0.879784042808361,0.3751704854709264,0.8297354583970369,0.9115004945029689],[0.9926085023569541,0.3986251250494434,0.6467370166820877,0.951830029748058,0.7754597916114881,0.03710581542475736,0.3928823082073199,0.788226749407882,0.989227633166749,0.9021647356219665,0.8184944587551714,0.6101175540078198,0.9266228226641063,0.23183669867563947,0.9807152786111535,0.4865048545820029,0.37971252422950535,0.5864130159651478,0.25285967161470624,0.8845990203715101,0.8542854432909586,0.8334361851259431,0.9709077758055336,0.9136163500274777,0.9184387510517753,0.031601743707543206,0.97203726234071,0.9662203105910626,0.4468045892827122,0.683781591305541,0.8447062415432454,0.6930421707094601,0.7467674048604789,0.5247464040529314,0.8015749421520739,0.7855153594795367,0.17852113380143206,0.4989276184009238,0.7774033236597755,0,0.4564732470373832,0.9010423965134117,0.739309961232867,0.5627826174827044,0.9774873383566662,0.7978545055548528,0.8027889628524808,0.1282800325494011,0.8662595676019964,0.875099981215194,0.5792222700665003,0.6862971957834016,0.9231173048643484,0.9717486215410995,0.9423970893048981,0.9763662389473091,0.9131643337324107,0.9414532467782493,0.9833391075279561,0.6431399615687893,0.44992918726277553,0.955559097511741,0.9591237629814127,0.173849333657352,0.9465349490160911,0.08065679139084676,0.8730454471915314,0.8233513205827555,0.108148845035815,0.8640955822895867,0.758437936143987,0.8396062535425522,0.32288728522418086,0.8479470280704348,0.9812418683099875,0.6510629960828306,0.9768262775316979,0.8701781234898865,0.7266458873729241,0.301500477360106,0.7667801023047841,0.11244922758278338,0.7707486553348766,0.8056595303149122,0.020661654913308097,0.8254021343168148,0.5027398431132589,0.9068571013904922,0.2872580544993777],[0.8809403304362566,0.0645476760803862,0.9084872489451735,0.9501496006307548,0.40026163959244837,0.416635581215265,0.7556970774160787,0.9332808599140244,0.8485091234215294,0.9679927842311266,0.9211377303892035,0.8868941274898949,0.6477749947985647,0.2370529433399168,0.7702120994962841,0.02408154544702056,0.7518146332485026,0.878606227780187,0.22272711051445734,0.5681575939393064,0.9496701808329573,0.49936475685393894,0.7370930349506987,0.6207789170886517,0.9486495232890555,0.4885141447571491,0.7554686831185513,0.9171929236007977,0.011368389447442326,0.2618971070197283,0.9583799159322657,0.284499330183829,0.9301541538736048,0.8428333824834913,0.4473149797602171,0.39826456341354627,0.29132187153837513,0.038228075318237346,0.9408495297931525,0.4564732470373832,0,0.9433268277390073,0.3414519771386993,0.8688076136225605,0.8534678254311886,0.43154928487264144,0.9538255159366752,0.5710998003962381,0.527176311817225,0.9450160276520522,0.12896109693407662,0.9255903294300611,0.9510173926760336,0.7860770529093462,0.9376761621065977,0.9054617558403805,0.9626430526602798,0.950897668945905,0.8293303201159027,0.20688945869730907,0.8019656382767151,0.6982363676833372,0.9288704627652695,0.6046855244036359,0.6873435466517854,0.5291321467091769,0.9541672758328197,0.9563029604239682,0.3484800376661146,0.9618631703618798,0.9532947331564519,0.4833328563411881,0.14627708146414783,0.9279352540159465,0.8093584028148287,0.23295097477971044,0.881682192322745,0.5485402369327103,0.9440649204265659,0.7019963148262449,0.9065409948549585,0.35348714442568796,0.3732088112033789,0.4285274357608419,0.4307677619602552,0.4762723833565264,0.8337748504322212,0.6048049042096122,0.1814561991556187],[0.3066803954673248,0.9614261616466604,0.44778348104344157,0.08852482492720094,0.8016407161153801,0.9109440745820059,0.6697544959021752,0.20704598761212858,0.3627614203851731,0.043752714711608236,0.12483744392451762,0.48060702142273154,0.627422462007676,0.9584706333643117,0.49930704326356,0.953555276732547,0.6887422264393962,0.5129903033203911,0.9713522672999085,0.6970951296462914,0.10260109081060709,0.7260826971531579,0.5441899492702051,0.653657597086451,0.02116564821472345,0.8868288015341551,0.5098600313782264,0.18033581115344313,0.9535411657678338,0.8859709548560057,0.13924562360492918,0.8593976103201516,0.2853765272686038,0.5694387414363106,0.762757191370501,0.8279726094412462,0.9550043448499608,0.946390602520756,0.2432318447782132,0.9010423965134117,0.9433268277390073,0,0.8432639661884622,0.5423220293438438,0.3279693808674095,0.7864096717014887,0.2163391143202312,0.8503768665998791,0.7405275804598251,0.05092537455260103,0.9333096903924654,0.40013855271054605,0.027023867939600835,0.4484463643192512,0.09113453648467564,0.22442869022016995,0.015889749556080673,0.06534097309764482,0.38782335534737494,0.9112984054865135,0.6428494735342153,0.5887783532156565,0.14306173459140495,0.8226779001699381,0.5910017386476004,0.86584989891189,0.07279617237451665,0.17898914398565982,0.9220988675826765,0.1064752820450117,0.3065571096745807,0.7717952136629291,0.9666348192112799,0.0768701651742738,0.4227187367353837,0.8742094042053817,0.2714628225446282,0.7055812585499004,0.3537101881655606,0.7514640721181431,0.20356042812190633,0.9413587008616413,0.8475371114587782,0.8098883621230097,0.8906110006509748,0.7551882251609301,0.5968302070997441,0.6712740972393668,0.9630558670876083],[0.6733716054057369,0.4101332927940511,0.9778092327081321,0.8156788759394731,0.06249381027346438,0.7073983649805476,0.9226071042229598,0.9121836344880794,0.6236704185832577,0.8818135968519331,0.8703576060852537,0.9706401306320206,0.34710508881132734,0.5638583788836269,0.5037482153092457,0.32137622495392754,0.9259614435170349,0.9749646554729097,0.5550163394338665,0.25035660718623964,0.8886607819165687,0.17897224858707297,0.45771482492290605,0.3133519462960634,0.8385869997844383,0.7627910622867646,0.4865577243614287,0.7518407469976911,0.35858548177607397,0.08124404883378729,0.9097130734911166,0.05177960856491914,0.9380910683081101,0.9636962414025548,0.11937195255072436,0.05185172641068265,0.6109892630875764,0.3038794738218994,0.9322212803365282,0.739309961232867,0.3414519771386993,0.8432639661884622,0,0.9768358152232276,0.6406835655803568,0.09563250316390308,0.9338595178409798,0.8232181875433031,0.19800363658218528,0.8655726960454065,0.2179822701609325,0.9756651668624428,0.8388299082089095,0.5363014474214644,0.802841761011769,0.7252442203796485,0.8649558422845259,0.8247441680039362,0.5972412879526875,0.14021077390880235,0.953867835667156,0.40661155673949795,0.7759967423742695,0.8432566076173683,0.39588970176628635,0.7914815699051457,0.8816950989861668,0.9224175297141034,0.6506792661919555,0.9006955447914351,0.9660906734319678,0.14740180669426925,0.48531908034941146,0.8589365249034175,0.5666026084755713,0.10377486418319459,0.6866356286786378,0.2297249463344831,0.9750665791261901,0.9041878665391242,0.8860772091916853,0.6616835804927425,0.026482481343521356,0.0849287092958121,0.7128119791710825,0.1470686603697831,0.9654915466092956,0.2926467483841662,0.5157365928356202],[0.7925153015633869,0.8450881510846519,0.10408764879950139,0.6300823920840608,0.9726845304681787,0.5949595315522695,0.1780292909400309,0.3419822100073353,0.825953171915635,0.5141129894475962,0.41474100343763254,0.061989804981047225,0.9544503561881197,0.7424337986450014,0.906364064345296,0.8932000792159269,0.19694896690690902,0.026960637637126215,0.7629089214439057,0.9728473446773432,0.44615542461082347,0.9604157651065379,0.9286041517840155,0.9630601663123846,0.5686399450194124,0.5311933296209767,0.9079506473573693,0.6977747666653695,0.8692932479671678,0.9699829692107959,0.41722174408882545,0.9591270005393333,0.2672866292376394,0.03507439110583892,0.9641601410942128,0.9948931862140361,0.7079266928516383,0.8962805439125543,0.3117758762362931,0.5627826174827044,0.8688076136225605,0.5423220293438438,0.9768358152232276,0,0.7974669955533898,0.9766196048147213,0.34355914283129013,0.449874353913868,0.9888351022591299,0.4912552822031605,0.9364701329503139,0.1578701848074331,0.5745852917441653,0.8695466706368881,0.6274701467934742,0.7314467102097068,0.5414874716287276,0.6094748082497891,0.8383304520956889,0.9612398885790254,0.12534610174460264,0.9473710721917576,0.6699825768502701,0.4050231385848747,0.9435199058973996,0.48843199181732744,0.4760196226604691,0.37939913498160616,0.6447729409892765,0.44959094313194986,0.2602667986784451,0.9923675404403782,0.8025339378435873,0.4614955294145507,0.858950975174017,0.9430953015812925,0.7615219154759755,0.9695741537715347,0.21148843310840937,0.2831659366478701,0.3364148758861027,0.6594161983702594,0.9981294801694989,0.9957180566923399,0.5685039847739126,0.9736992832954231,0.06459198217916037,0.9699829692107959,0.7788020751844675],[0.027835095025409554,0.8941424508356788,0.7258962938767565,0.24736057445089776,0.5824402172063387,0.9725419127633838,0.8735382151797597,0.5172377224021406,0.028927196857486275,0.3776193312014378,0.4370001470873068,0.7482381689741683,0.33751130382230765,0.9522692410917619,0.17883702978667707,0.85323390424883,0.8892054564145522,0.7744835415748548,0.9584403951684656,0.4286017401510613,0.42845072112343696,0.4794755002635691,0.23102502289834043,0.37075894156283407,0.3064771144991065,0.9758943165859812,0.1933025250303582,0.1505213425627464,0.8679177748723679,0.7073399622009666,0.46433215065765754,0.6754412586726575,0.5870526570675454,0.8131346690587551,0.5309450863834639,0.6069055813607465,0.9680858141408167,0.840961300819196,0.5526199080468209,0.9774873383566662,0.8534678254311886,0.3279693808674095,0.6406835655803568,0.7974669955533898,0,0.5575929653725848,0.532560489958046,0.9718008175165268,0.4823569772397955,0.380036452245195,0.7971285814653285,0.6887422264393962,0.3027040780469555,0.12683685905823933,0.23848877382220712,0.10675285465044605,0.34581655971975855,0.2682302993088588,0.056926326330423216,0.7497129617901115,0.8650706388519723,0.28494721022572717,0.18855205030850544,0.9586509629173116,0.290648435383113,0.9712030600876157,0.4028379029607789,0.49963056651374466,0.9588301792489348,0.4355682612147933,0.6135230603251177,0.5260851075924153,0.9276050879090338,0.39588970176628635,0.09544778761182007,0.7071325937024042,0.05528153926991648,0.44324575986937514,0.6529609068273589,0.9282998626787029,0.5033066590540403,0.9776122967000271,0.6335297865963443,0.5798786517428061,0.9593028915293804,0.5136321352917762,0.83458560353624,0.3923309301133029,0.9368590580978496],[0.5909441611219904,0.4979261348732988,0.9662203105910626,0.7498824680378473,0.027369489861161507,0.7692413325198345,0.9411926729887402,0.8760699574895289,0.5377726185334766,0.8279376391806832,0.8268203167592825,0.9634427209545172,0.24809957164828364,0.6410168826515404,0.4097701859989491,0.4141960015851116,0.9466267944882375,0.9713607927382875,0.6343501053082531,0.1494929205434074,0.8417332368677796,0.07925041719935627,0.3615334611583445,0.2135004328264369,0.7790396018074007,0.8180635711956603,0.3923152399533715,0.6790268187577029,0.4488610344777141,0.18209421500124112,0.865778216965989,0.15052134256274644,0.9096766752479643,0.9675852726734729,0.02089544294184203,0.045076165314922444,0.6845980187426546,0.39697679422881055,0.899183697321213,0.7978545055548528,0.43154928487264144,0.7864096717014887,0.09563250316390308,0.9766196048147213,0.5575929653725848,0,0.8975286943806838,0.8701079845380143,0.09642908620669605,0.813988696050783,0.31533547420645913,0.9585224680658583,0.7786826212253852,0.4458258818332462,0.7372429977096401,0.6489926363197858,0.8082475633819695,0.7610400124217008,0.51002153767912,0.24014062590071011,0.9672043465012482,0.3085636223337306,0.7060451123912372,0.885478049421767,0.29805640586258986,0.8423227780311047,0.8316873415072538,0.8823859183028255,0.717595195049778,0.853429044975308,0.9383910995857012,0.04672326327955063,0.5687215057267969,0.8104906929044495,0.477279948773968,0.20072260673186287,0.6072555607225671,0.12898425444557216,0.9524083551708766,0.9338307042300661,0.8508352649485358,0.7302664156073713,0.07519325003456342,0.017543830757205107,0.7717818223288478,0.04578560966576388,0.9725482990752998,0.19220181482900653,0.5966625853080959],[0.5167079354037791,0.9557616324718996,0.23868043263150504,0.3107416339985143,0.9056411464884029,0.8221347448564513,0.4989936258138416,0.015746218182966485,0.5661695134868111,0.17635738291117312,0.08997981071689624,0.27693151111849773,0.7871545992844149,0.9122528279541655,0.6858637600923435,0.970256128978124,0.5190084148057036,0.3115955369878255,0.928777986797984,0.8390493288667307,0.10832214474321715,0.8524965752294404,0.7235158337800855,0.8073759832989097,0.24329871025400518,0.7809160563298573,0.6932894662973528,0.397815988041709,0.960547241045806,0.9583053916569484,0.07311295626235664,0.9369573688774,0.07059640348268963,0.37705685770426467,0.8773914718427381,0.9314183098607856,0.8960577255791606,0.9669346119762595,0.02583375209255553,0.8027889628524808,0.9538255159366752,0.2163391143202312,0.9338595178409798,0.34355914283129013,0.532560489958046,0.8975286943806838,0,0.7247227127503915,0.8732053901521101,0.15964701543935958,0.9748956386526612,0.1865227565535267,0.2489957963804968,0.6386170305096505,0.31234245898546265,0.4395696849502121,0.20833784870778768,0.2876307844172402,0.5872440637539925,0.9709056434644966,0.46083779002533937,0.7595815993204744,0.362671019298928,0.6888546587374462,0.7594781953419002,0.7501965742408098,0.13927431286189068,0.03239760925470567,0.8494155003715005,0.10741625608428726,0.0857955506357429,0.8945774148316696,0.9418302372521222,0.13520109146005765,0.6178639960015008,0.9398865249693042,0.4819045993535068,0.843142541610539,0.13546647004473153,0.5940627989589965,0.04245763464726505,0.8676889148829129,0.9451956231156662,0.9202217020674767,0.7983726216393441,0.8764418334439201,0.4068614025427065,0.8214099830968378,0.9299227075035642],[0.9826903873028352,0.519081816101173,0.543132557630836,0.911717293331398,0.8512436043604307,0.17033956134122433,0.27102321988388883,0.7126293803207441,0.9878850598701376,0.8445703285214204,0.7540146533385611,0.5037482153092457,0.9680344883929204,0.3611733506630677,1,0.6008443881176362,0.25553399908678337,0.47654012195440687,0.3826717581300585,0.9387053683603618,0.790211064815678,0.8948375986911995,0.9973802958137999,0.9596416341694625,0.8705109097862743,0.0907906425868886,0.9934446377475706,0.9392454458498122,0.5634250256901917,0.7770695392697011,0.7756996663183358,0.7819993387703916,0.661772493470085,0.41001062319739073,0.8701864446878377,0.8644426601175336,0.3102150089469508,0.6115562260731044,0.6968625103627355,0.1282800325494011,0.5710998003962381,0.8503768665998791,0.8232181875433031,0.449874353913868,0.9718008175165268,0.8701079845380143,0.7247227127503915,0,0.9277400685677047,0.8175376083492425,0.6853471956619195,0.5875301805903123,0.8756542152839031,0.9841967449238855,0.9035823158550018,0.9553066814068141,0.8598512326542919,0.898556373467208,0.9861040339949343,0.7424087483506114,0.3284649340740094,0.9895091133323702,0.9270013404870925,0.04152348420733125,0.9813990520659028,0.04167680378554993,0.8122899335310162,0.7496605863177472,0.23897827045980916,0.7988696992808484,0.6694954998724261,0.9072130181466157,0.4483088210604915,0.7887183780289195,0.989284144865377,0.7445933221265314,0.9627860525702535,0.9263994362395396,0.6324996434685517,0.1722784894341837,0.6938686298946593,0.24577265889797875,0.8533405705099333,0.8807841317172194,0.146748428919344,0.8915015487649214,0.3851322216846219,0.9558482654183804,0.41417617001406604],[0.5161257457119052,0.5915650075677078,0.9670941069011281,0.6939341092309762,0.12969249848346165,0.8406820997950091,0.9720894429119761,0.852245399250508,0.4589486065430433,0.7849545839819984,0.7954954472545702,0.9688040908427072,0.15249902400838447,0.7258550226104671,0.32073924042552177,0.5116237676822172,0.9794435508488537,0.9802507177470594,0.7208969205289523,0.05134499525931383,0.8064342418891605,0.02699226795879206,0.2694961008222688,0.11658179993789874,0.7301178613675426,0.8834908157555047,0.30312220913025284,0.6154250083719272,0.5444776322430477,0.2843415119805163,0.8335106287756874,0.25242872679711426,0.893699172899638,0.9839611002254173,0.07500049351598685,0.14460536971710042,0.7663271043785955,0.49467672082605546,0.878394266468738,0.8662595676019964,0.527176311817225,0.7405275804598251,0.19800363658218528,0.9888351022591299,0.4823569772397955,0.09642908620669605,0.8732053901521101,0.9277400685677047,0,0.7737946308373391,0.4158066702733946,0.953781023951501,0.7290629714003561,0.36175162413319123,0.6816961469589997,0.581457003610326,0.7622543714494552,0.707448003583992,0.4297363000181348,0.3419971766019347,0.992797267392397,0.21386556456701014,0.6456254600030648,0.9388045894124392,0.20397758353486745,0.9036876579748977,0.793052522037393,0.8542140084302038,0.7936844671223838,0.8176046367104813,0.9228358881806076,0.04608669647997843,0.6587709833188983,0.7738961365270319,0.39443305260098455,0.3017375122841022,0.53625342812412,0.03344256777853295,0.9420016468764523,0.9752013993572588,0.8282835304900478,0.807598766579833,0.17558451153271012,0.11063201429254362,0.8407878872267768,0.04586607054505612,0.9919825065457113,0.09406196029889384,0.6846885057691109],[0.3603554104527222,0.9590406619442192,0.3941858579395177,0.14539192896118833,0.8273604180050347,0.887369929548493,0.6254510893284512,0.15115240132997135,0.41461224855650536,0.02116564821472345,0.07075950119872879,0.42824208468413777,0.6677029305027372,0.9457506215810788,0.5467096358489748,0.9569045597280863,0.6447681394098714,0.4612414619386474,0.9596157472067329,0.732722411992924,0.04572518179138465,0.7575449624369108,0.5896882872811481,0.692366876329832,0.07773336197090336,0.8589449542572741,0.5563959601869372,0.235970478097372,0.9543798650519799,0.9036052173536914,0.08240685509652243,0.8782906224466552,0.22989723195306447,0.5198588437246052,0.7911732795070362,0.8536750288386208,0.9390691279542689,0.9507017250682513,0.18709008779750244,0.875099981215194,0.9450160276520522,0.05092537455260103,0.8655726960454065,0.4912552822031605,0.380036452245195,0.813988696050783,0.15964701543935958,0.8175376083492425,0.7737946308373391,0,0.9430514039975523,0.34547590798720945,0.08340315806780836,0.4966844249587264,0.14779521021772826,0.27943870530503945,0.044460124183161476,0.12214198484032793,0.43856567692357895,0.9256797680306019,0.5958895393477147,0.6320280269640065,0.19930166820232606,0.7877479384340612,0.633596558188245,0.8354970764624123,0.016869205439124808,0.12214198484032793,0.9025694929476561,0.05026228879248197,0.25029158344912517,0.8024914258540807,0.9593805755041986,0.024392053701359283,0.4723254280075061,0.8900102230431557,0.3251346539948941,0.7400279268081517,0.2980255712398156,0.7106337097303775,0.1498275681320441,0.9216824222175083,0.8717707872334841,0.837371408161571,0.8660887961762019,0.7853811254738892,0.547901249057